pptID,gender,age,trial,trialType,ImageNo,imageOrder,response,correct,responseType,RT
148,1,18,1,0,16,1,1,0,2,4.3289817
148,1,18,2,0,1,1,0,1,1,4.0403814
148,1,18,3,1,33,2,1,1,3,2.2628736
148,1,18,4,1,25,2,0,0,4,2.91907
148,1,18,5,1,31,1,0,0,4,2.4280672
148,1,18,6,1,34,1,0,0,4,3.9192026
148,1,18,7,0,13,2,1,0,2,2.5764036
148,1,18,8,0,15,2,0,1,1,3.2922879
148,1,18,9,0,7,1,0,1,1,3.6715539
148,1,18,10,0,5,1,0,1,1,3.0616118
148,1,18,11,0,17,2,0,1,1,2.7426917
148,1,18,12,0,8,2,0,1,1,3.0306432
148,1,18,13,1,28,1,0,0,4,2.9153407
148,1,18,14,0,10,1,0,1,1,2.9372256
148,1,18,15,1,27,2,0,0,4,2.5838981
148,1,18,16,1,38,2,1,1,3,2.3629536
148,1,18,17,1,39,1,0,0,4,2.9166271
148,1,18,18,0,9,1,0,1,1,2.4537575
148,1,18,19,0,19,2,0,1,1,2.5047989
148,1,18,20,0,18,2,0,1,1,3.1670159
148,1,18,21,0,20,1,0,1,1,1.9115526
148,1,18,22,1,36,1,1,1,3,2.8814743
148,1,18,23,0,3,2,0,1,1,1.6766757
148,1,18,24,1,24,2,0,0,4,2.9049995
148,1,18,25,1,29,1,0,0,4,3.0568998
148,1,18,26,0,11,1,0,1,1,2.295769
148,1,18,27,1,23,2,1,1,3,2.6757448
148,1,18,28,1,30,2,1,1,3,1.8146014
148,1,18,29,0,14,1,1,0,2,3.5846753
148,1,18,30,1,21,1,1,1,3,2.8857889
148,1,18,31,1,26,2,0,0,4,2.6792396
148,1,18,32,1,37,2,0,0,4,2.7301255
148,1,18,33,1,22,1,1,1,3,3.2396439
148,1,18,34,0,12,1,1,0,2,2.1877375
148,1,18,35,0,2,2,1,0,2,3.3728459
148,1,18,36,1,40,2,1,1,3,2.2663296
148,1,18,37,1,35,1,0,0,4,1.9358271
148,1,18,38,0,6,1,0,1,1,2.3894983
148,1,18,39,0,4,2,1,0,2,2.2950803
148,1,18,40,1,32,2,0,0,4,2.259224
147,1,18,1,0,11,1,0,1,1,7.2069274
147,1,18,2,1,32,1,0,0,4,4.3827352
147,1,18,3,0,13,2,0,1,1,4.3382695
147,1,18,4,1,33,2,1,1,3,3.6455334
147,1,18,5,0,16,1,0,1,1,4.0245848
147,1,18,6,0,9,1,0,1,1,8.0518943
147,1,18,7,0,3,2,0,1,1,3.3693076
147,1,18,8,1,38,2,1,1,3,3.1978969
147,1,18,9,0,4,1,0,1,1,4.6056023
147,1,18,10,1,37,1,1,1,3,3.3802331
147,1,18,11,1,40,2,0,0,4,2.4484461
147,1,18,12,0,6,2,0,1,1,2.9990388
147,1,18,13,1,28,1,0,0,4,3.0354793
147,1,18,14,1,21,1,1,1,3,3.6743574
147,1,18,15,1,36,2,1,1,3,4.3252273
147,1,18,16,1,29,2,0,0,4,5.3589322
147,1,18,17,1,26,1,1,1,3,3.4725549
147,1,18,18,0,12,1,0,1,1,4.6525156
147,1,18,19,1,25,2,1,1,3,2.9606525
147,1,18,20,0,10,2,0,1,1,2.278656
147,1,18,21,1,27,1,0,0,4,4.9231633
147,1,18,22,0,7,1,0,1,1,3.2477865
147,1,18,23,0,2,2,0,1,1,2.4278332
147,1,18,24,1,34,2,0,0,4,2.3036633
147,1,18,25,0,8,1,0,1,1,4.4402689
147,1,18,26,0,17,1,0,1,1,4.8747656
147,1,18,27,0,15,2,0,1,1,2.879181
147,1,18,28,1,23,2,0,0,4,3.194309
147,1,18,29,1,35,1,1,1,3,1.8701396
147,1,18,30,0,14,1,0,1,1,2.656376
147,1,18,31,1,31,2,1,1,3,2.6201524
147,1,18,32,1,30,2,1,1,3,1.9935073
147,1,18,33,1,24,1,0,0,4,5.716066
147,1,18,34,0,20,1,0,1,1,3.1228783
147,1,18,35,0,5,2,0,1,1,2.9688971
147,1,18,36,1,39,2,1,1,3,3.3070699
147,1,18,37,0,19,1,0,1,1,5.9353036
147,1,18,38,1,22,1,1,1,3,6.4215721
147,1,18,39,0,1,2,0,1,1,4.1044015
147,1,18,40,0,18,2,0,1,1,6.7811249
146,1,18,1,1,38,1,1,1,3,3.0761995
146,1,18,2,1,27,1,1,1,3,1.8163157
146,1,18,3,0,7,2,0,1,1,1.3137217
146,1,18,4,0,20,2,0,1,1,2.7862548
146,1,18,5,0,13,1,1,0,2,2.9133507
146,1,18,6,1,29,1,1,1,3,2.8208497
146,1,18,7,0,9,2,0,1,1,1.368596
146,1,18,8,0,6,2,0,1,1,2.032616
146,1,18,9,0,14,1,0,1,1,3.29877
146,1,18,10,0,10,1,0,1,1,2.6043079
146,1,18,11,0,8,2,1,0,2,2.0322807
146,1,18,12,0,2,2,1,0,2,3.7916371
146,1,18,13,0,19,1,1,0,2,2.1283957
146,1,18,14,1,32,1,0,0,4,2.6096419
146,1,18,15,0,11,2,1,0,2,2.489642
146,1,18,16,0,17,2,1,0,2,3.3392064
146,1,18,17,1,26,1,1,1,3,3.8331687
146,1,18,18,1,24,1,1,1,3,4.5367129
146,1,18,19,1,33,2,1,1,3,2.5791726
146,1,18,20,1,35,2,1,1,3,2.367194
146,1,18,21,0,4,1,0,1,1,3.490464
146,1,18,22,0,18,1,0,1,1,3.0028971
146,1,18,23,1,23,2,1,1,3,2.6399571
146,1,18,24,1,34,2,1,1,3,2.9128408
146,1,18,25,1,36,1,1,1,3,1.6324661
146,1,18,26,0,16,1,0,1,1,2.1376801
146,1,18,27,1,40,2,1,1,3,1.5721358
146,1,18,28,1,25,2,1,1,3,1.7834825
146,1,18,29,1,37,1,1,1,3,2.4010339
146,1,18,30,0,12,1,0,1,1,2.8012043
146,1,18,31,1,30,2,1,1,3,5.0587728
146,1,18,32,0,1,2,1,0,2,1.8619102
146,1,18,33,0,15,1,1,0,2,1.7008502
146,1,18,34,1,22,1,1,1,3,1.983495
146,1,18,35,0,5,2,1,0,2,1.9608214
146,1,18,36,1,39,2,1,1,3,1.6744071
146,1,18,37,1,21,1,1,1,3,1.6074052
146,1,18,38,0,3,1,1,0,2,1.2596221
146,1,18,39,1,28,2,1,1,3,2.1540669
146,1,18,40,1,31,2,1,1,3,3.1504473
145,2,20,1,0,16,1,0,1,1,9.1171331
145,2,20,2,0,7,1,1,0,2,9.633361
145,2,20,3,1,29,2,1,1,3,6.0785659
145,2,20,4,0,5,2,0,1,1,6.0423335
145,2,20,5,1,27,1,1,1,3,10.250308
145,2,20,6,1,36,1,1,1,3,7.8867207
145,2,20,7,0,15,2,1,0,2,9.4789722
145,2,20,8,1,30,2,0,0,4,9.8104295
145,2,20,9,1,35,1,1,1,3,9.6956315
145,2,20,10,0,10,1,0,1,1,3.7396867
145,2,20,11,0,4,2,0,1,1,11.638458
145,2,20,12,1,25,2,1,1,3,2.5750928
145,2,20,13,0,12,1,0,1,1,12.308219
145,2,20,14,1,38,1,1,1,3,2.7431882
145,2,20,15,1,32,2,1,1,3,4.5156204
145,2,20,16,0,18,2,0,1,1,5.7733846
145,2,20,17,1,37,1,1,1,3,5.9448616
145,2,20,18,1,28,1,1,1,3,10.625965
145,2,20,19,0,1,2,0,1,1,5.2702119
145,2,20,20,0,17,2,0,1,1,4.0461149
145,2,20,21,1,31,1,0,0,4,3.0033407
145,2,20,22,1,26,1,1,1,3,6.4548352
145,2,20,23,1,24,2,1,1,3,4.054028
145,2,20,24,1,40,2,1,1,3,6.8582081
145,2,20,25,0,13,1,0,1,1,2.4557076
145,2,20,26,1,21,1,1,1,3,3.6183258
145,2,20,27,0,6,2,1,0,2,4.2852976
145,2,20,28,0,2,2,1,0,2,3.6140591
145,2,20,29,1,39,1,0,0,4,6.9321847
145,2,20,30,1,22,1,1,1,3,5.9568562
145,2,20,31,0,19,2,0,1,1,3.1059163
145,2,20,32,0,14,2,1,0,2,12.901188
145,2,20,33,0,9,1,0,1,1,5.4480184
145,2,20,34,0,20,1,0,1,1,5.835996
145,2,20,35,1,34,2,0,0,4,3.4084347
145,2,20,36,0,8,2,1,0,2,7.3110859
145,2,20,37,1,23,1,0,0,4,5.1236953
145,2,20,38,1,33,1,1,1,3,2.751974
145,2,20,39,0,3,2,0,1,1,10.406921
145,2,20,40,0,11,2,0,1,1,2.6192874
144,1,20,1,1,21,1,1,1,3,6.3035854
144,1,20,2,0,13,1,0,1,1,3.172501
144,1,20,3,1,40,2,0,0,4,3.1842284
144,1,20,4,0,11,2,0,1,1,3.1760794
144,1,20,5,0,10,1,0,1,1,1.2018141
144,1,20,6,1,29,1,1,1,3,1.6307936
144,1,20,7,1,39,2,0,0,4,2.5491455
144,1,20,8,1,25,2,1,1,3,2.3845794
144,1,20,9,1,27,1,1,1,3,1.5594609
144,1,20,10,1,31,1,1,1,3,1.6966583
144,1,20,11,0,14,2,0,1,1,1.1679085
144,1,20,12,1,30,2,1,1,3,2.5525592
144,1,20,13,0,1,1,0,1,1,1.0504987
144,1,20,14,0,9,1,0,1,1,1.3070484
144,1,20,15,1,38,2,0,0,4,1.3233129
144,1,20,16,1,34,2,1,1,3,1.5289902
144,1,20,17,1,22,1,0,0,4,1.6971054
144,1,20,18,0,16,1,0,1,1,1.2241721
144,1,20,19,1,33,2,1,1,3,1.3737276
144,1,20,20,0,2,2,0,1,1,1.1851159
144,1,20,21,0,20,1,0,1,1,1.0707865
144,1,20,22,0,8,1,0,1,1,1.7369917
144,1,20,23,0,5,2,0,1,1,0.83699356
144,1,20,24,0,6,2,0,1,1,1.2171138
144,1,20,25,1,24,1,0,0,4,0.81291862
144,1,20,26,0,4,1,0,1,1,1.1044202
144,1,20,27,1,36,2,0,0,4,1.4325981
144,1,20,28,0,17,2,0,1,1,1.0727911
144,1,20,29,0,3,1,0,1,1,1.656023
144,1,20,30,0,15,1,0,1,1,1.1592348
144,1,20,31,0,12,2,0,1,1,0.88968443
144,1,20,32,0,19,2,0,1,1,1.7217724
144,1,20,33,1,23,1,0,0,4,1.3512976
144,1,20,34,0,18,1,0,1,1,0.91455276
144,1,20,35,1,26,2,0,0,4,1.0316245
144,1,20,36,1,28,2,0,0,4,0.98504586
144,1,20,37,1,35,1,0,0,4,1.175543
144,1,20,38,1,32,1,0,0,4,1.1280776
144,1,20,39,0,7,2,1,0,2,3.0363234
144,1,20,40,1,37,2,1,1,3,1.3569416
143,2,18,1,1,29,1,0,0,4,5.1989972
143,2,18,2,0,13,1,1,0,2,5.6934944
143,2,18,3,1,24,2,0,0,4,5.3004667
143,2,18,4,0,9,2,0,1,1,4.6548034
143,2,18,5,1,22,1,1,1,3,3.9881887
143,2,18,6,1,36,1,0,0,4,2.7048272
143,2,18,7,1,35,2,1,1,3,2.7042295
143,2,18,8,0,17,2,0,1,1,4.1342908
143,2,18,9,1,23,1,1,1,3,2.0344535
143,2,18,10,0,1,1,0,1,1,3.0055414
143,2,18,11,1,34,2,0,0,4,5.2566945
143,2,18,12,0,16,2,0,1,1,3.6564526
143,2,18,13,0,2,1,0,1,1,1.9639138
143,2,18,14,1,33,1,0,0,4,3.6021749
143,2,18,15,1,39,2,0,0,4,3.1665257
143,2,18,16,0,19,2,0,1,1,2.6678002
143,2,18,17,1,30,1,0,0,4,4.5166786
143,2,18,18,1,40,1,0,0,4,1.8716395
143,2,18,19,0,11,2,0,1,1,3.9587015
143,2,18,20,0,7,2,1,0,2,7.3692521
143,2,18,21,0,8,1,0,1,1,5.625978
143,2,18,22,0,4,1,0,1,1,2.1905181
143,2,18,23,0,12,2,0,1,1,3.1466606
143,2,18,24,1,27,2,0,0,4,2.6636548
143,2,18,25,0,15,1,0,1,1,1.6137225
143,2,18,26,0,6,1,0,1,1,2.0330304
143,2,18,27,1,38,2,1,1,3,3.2250129
143,2,18,28,1,25,2,0,0,4,3.2920571
143,2,18,29,1,28,1,0,0,4,1.8626739
143,2,18,30,0,3,1,0,1,1,2.0902644
143,2,18,31,1,37,2,0,0,4,1.5344643
143,2,18,32,1,31,2,0,0,4,2.9000252
143,2,18,33,0,20,1,0,1,1,1.8611403
143,2,18,34,1,32,1,0,0,4,2.7605136
143,2,18,35,1,26,2,0,0,4,4.4567182
143,2,18,36,0,18,2,1,0,2,4.4157267
143,2,18,37,0,10,1,0,1,1,4.9211389
143,2,18,38,0,14,1,1,0,2,3.288843
143,2,18,39,1,21,2,1,1,3,4.2579862
143,2,18,40,0,5,2,0,1,1,3.9265064
142,2,20,1,1,30,1,1,1,3,9.7435082
142,2,20,2,1,36,1,1,1,3,2.2123215
142,2,20,3,1,28,2,0,0,4,2.081406
142,2,20,4,0,17,2,0,1,1,1.8428543
142,2,20,5,1,21,1,1,1,3,1.0976048
142,2,20,6,1,29,1,1,1,3,1.8612923
142,2,20,7,1,23,2,1,1,3,2.6725729
142,2,20,8,0,18,2,1,0,2,2.0658337
142,2,20,9,0,11,1,0,1,1,1.4746195
142,2,20,10,1,26,1,1,1,3,1.1544468
142,2,20,11,0,5,2,1,0,2,1.6834571
142,2,20,12,0,7,2,0,1,1,1.3853752
142,2,20,13,0,6,1,1,0,2,1.945406
142,2,20,14,0,16,1,0,1,1,1.0994363
142,2,20,15,0,1,2,0,1,1,2.5500274
142,2,20,16,0,15,2,0,1,1,2.3299935
142,2,20,17,0,4,1,0,1,1,2.6540971
142,2,20,18,1,34,1,1,1,3,1.000128
142,2,20,19,1,37,2,1,1,3,1.2580652
142,2,20,20,0,3,2,0,1,1,1.6835411
142,2,20,21,0,8,1,0,1,1,1.2203019
142,2,20,22,1,33,1,1,1,3,1.3492686
142,2,20,23,0,14,2,1,0,2,1.2307482
142,2,20,24,1,32,2,0,0,4,3.1773027
142,2,20,25,1,25,1,1,1,3,1.0768441
142,2,20,26,1,35,1,1,1,3,1.7703047
142,2,20,27,1,24,2,1,1,3,5.8126921
142,2,20,28,1,22,2,1,1,3,2.182452
142,2,20,29,0,13,1,0,1,1,1.6109216
142,2,20,30,0,2,1,0,1,1,1.3578107
142,2,20,31,1,39,2,1,1,3,1.1307114
142,2,20,32,1,40,2,1,1,3,1.7326818
142,2,20,33,0,20,1,0,1,1,1.2828418
142,2,20,34,0,10,1,0,1,1,1.827958
142,2,20,35,1,38,2,1,1,3,1.2320028
142,2,20,36,0,19,2,0,1,1,1.4739252
142,2,20,37,1,31,1,1,1,3,1.5602815
142,2,20,38,1,27,1,1,1,3,2.5892184
142,2,20,39,0,12,2,0,1,1,1.8615681
142,2,20,40,0,9,2,0,1,1,1.6373323
141,1,20,1,1,34,1,1,1,3,1.4382442
141,1,20,2,1,38,1,1,1,3,1.3693435
141,1,20,3,0,13,2,0,1,1,0.96956632
141,1,20,4,0,10,2,1,0,2,1.2013493
141,1,20,5,0,8,1,0,1,1,1.033334
141,1,20,6,0,9,1,0,1,1,0.99065177
141,1,20,7,0,5,2,0,1,1,0.98667248
141,1,20,8,1,29,2,1,1,3,1.0479725
141,1,20,9,0,12,1,1,0,2,1.0216331
141,1,20,10,1,28,1,1,1,3,1.0255348
141,1,20,11,0,1,2,1,0,2,1.0541997
141,1,20,12,0,18,2,1,0,2,0.97633516
141,1,20,13,0,19,1,0,1,1,1.5096897
141,1,20,14,1,21,1,1,1,3,1.0084208
141,1,20,15,1,30,2,1,1,3,1.3087784
141,1,20,16,0,14,2,1,0,2,1.2538639
141,1,20,17,1,37,1,1,1,3,1.3145634
141,1,20,18,1,32,1,1,1,3,1.0581829
141,1,20,19,1,23,2,1,1,3,1.4552936
141,1,20,20,1,24,2,1,1,3,1.4429097
141,1,20,21,1,36,1,1,1,3,0.99730213
141,1,20,22,0,3,1,0,1,1,1.7025731
141,1,20,23,0,4,2,0,1,1,1.6721722
141,1,20,24,0,15,2,1,0,2,2.5289934
141,1,20,25,1,35,1,1,1,3,1.1466686
141,1,20,26,0,20,1,0,1,1,2.4786573
141,1,20,27,0,16,2,1,0,2,1.5744666
141,1,20,28,1,25,2,1,1,3,1.4358422
141,1,20,29,0,17,1,0,1,1,2.0450056
141,1,20,30,1,31,1,1,1,3,1.2517909
141,1,20,31,0,2,2,1,0,2,5.289993
141,1,20,32,1,40,2,1,1,3,1.9594339
141,1,20,33,1,22,1,1,1,3,1.5572433
141,1,20,34,1,39,1,1,1,3,1.5003905
141,1,20,35,0,7,2,0,1,1,2.4819529
141,1,20,36,1,26,2,1,1,3,3.8661832
141,1,20,37,0,6,1,1,0,2,3.5588368
141,1,20,38,0,11,1,0,1,1,2.3155546
141,1,20,39,1,27,2,1,1,3,1.2896119
141,1,20,40,1,33,2,1,1,3,2.1524854
139,2,22,1,1,34,1,0,0,4,12.617576
139,2,22,2,0,14,1,0,1,1,3.0111039
139,2,22,3,1,29,2,1,1,3,4.276296
139,2,22,4,1,23,2,0,0,4,3.4340629
139,2,22,5,0,9,1,0,1,1,2.773673
139,2,22,6,1,21,1,1,1,3,6.1199427
139,2,22,7,0,16,2,1,0,2,3.15154
139,2,22,8,0,3,2,0,1,1,3.058161
139,2,22,9,1,37,1,1,1,3,2.5029029
139,2,22,10,0,15,1,1,0,2,3.3275531
139,2,22,11,0,12,2,0,1,1,4.4834769
139,2,22,12,1,30,2,1,1,3,2.7467299
139,2,22,13,1,31,1,1,1,3,4.4530302
139,2,22,14,0,4,1,0,1,1,3.1898194
139,2,22,15,0,18,2,0,1,1,3.574084
139,2,22,16,0,10,2,0,1,1,3.2609434
139,2,22,17,0,13,1,0,1,1,2.8629444
139,2,22,18,1,38,1,1,1,3,3.4668411
139,2,22,19,0,8,2,0,1,1,4.3873224
139,2,22,20,1,40,2,1,1,3,3.7361659
139,2,22,21,1,26,1,1,1,3,4.2634219
139,2,22,22,1,32,1,1,1,3,4.9005465
139,2,22,23,0,6,2,0,1,1,3.2612664
139,2,22,24,0,11,2,0,1,1,4.9623021
139,2,22,25,0,5,1,0,1,1,4.9388763
139,2,22,26,0,7,1,0,1,1,2.1899302
139,2,22,27,1,35,2,1,1,3,3.341839
139,2,22,28,1,33,2,1,1,3,4.8554196
139,2,22,29,1,25,1,1,1,3,4.0313399
139,2,22,30,1,22,1,1,1,3,2.4182882
139,2,22,31,1,39,2,1,1,3,2.8987485
139,2,22,32,1,24,2,1,1,3,3.1995312
139,2,22,33,0,1,1,0,1,1,2.3121332
139,2,22,34,0,19,1,0,1,1,3.0177303
139,2,22,35,0,2,2,0,1,1,1.8154927
139,2,22,36,0,20,2,0,1,1,2.6459417
139,2,22,37,1,28,1,0,0,4,4.5973602
139,2,22,38,1,27,1,0,0,4,3.167168
139,2,22,39,0,17,2,0,1,1,2.8876244
139,2,22,40,1,36,2,1,1,3,2.2504093
138,1,18,1,0,18,1,0,1,1,9.5611383
138,1,18,2,1,28,1,0,0,4,5.6366182
138,1,18,3,0,20,2,0,1,1,3.1533327
138,1,18,4,1,40,2,0,0,4,4.0718591
138,1,18,5,1,31,1,0,0,4,3.9056301
138,1,18,6,1,37,1,1,1,3,7.1498115
138,1,18,7,0,7,2,0,1,1,5.9776864
138,1,18,8,1,25,2,1,1,3,9.3130394
138,1,18,9,1,24,1,1,1,3,7.0847321
138,1,18,10,0,12,1,0,1,1,12.094602
138,1,18,11,0,13,2,0,1,1,5.5944014
138,1,18,12,1,32,2,1,1,3,12.657504
138,1,18,13,0,17,1,0,1,1,8.170764
138,1,18,14,1,22,1,1,1,3,12.608783
138,1,18,15,1,23,2,1,1,3,6.2371389
138,1,18,16,1,29,2,1,1,3,6.9114734
138,1,18,17,0,5,1,0,1,1,14.736536
138,1,18,18,0,6,1,0,1,1,14.432288
138,1,18,19,0,9,2,0,1,1,6.3843724
138,1,18,20,0,19,2,0,1,1,6.7523221
138,1,18,21,0,4,1,0,1,1,8.7168826
138,1,18,22,0,15,1,0,1,1,7.3677278
138,1,18,23,1,35,2,1,1,3,6.896833
138,1,18,24,1,26,2,1,1,3,5.7587126
138,1,18,25,1,36,1,1,1,3,13.446565
138,1,18,26,0,1,1,0,1,1,8.0850826
138,1,18,27,1,33,2,1,1,3,8.3704127
138,1,18,28,0,3,2,0,1,1,6.3411567
138,1,18,29,1,21,1,1,1,3,8.0447164
138,1,18,30,0,14,1,0,1,1,8.3157447
138,1,18,31,0,16,2,0,1,1,7.8451334
138,1,18,32,1,30,2,1,1,3,11.230592
138,1,18,33,0,10,1,0,1,1,6.6937217
138,1,18,34,1,39,1,1,1,3,5.1821141
138,1,18,35,0,8,2,0,1,1,7.9894973
138,1,18,36,1,27,2,1,1,3,11.277159
138,1,18,37,1,34,1,1,1,3,11.284094
138,1,18,38,0,2,1,0,1,1,4.6251877
138,1,18,39,0,11,2,0,1,1,6.4649913
138,1,18,40,1,38,2,1,1,3,8.5593485
137,1,19,1,1,29,1,0,0,4,3.5461285
137,1,19,2,0,4,1,0,1,1,2.2334505
137,1,19,3,0,12,2,0,1,1,2.6395248
137,1,19,4,0,2,2,0,1,1,1.901117
137,1,19,5,0,17,1,0,1,1,2.8856988
137,1,19,6,1,32,1,0,0,4,4.0263172
137,1,19,7,1,39,2,1,1,3,4.2973116
137,1,19,8,0,14,2,0,1,1,2.2398311
137,1,19,9,0,5,1,0,1,1,3.1978341
137,1,19,10,0,11,1,0,1,1,1.6646833
137,1,19,11,1,24,2,0,0,4,4.2089986
137,1,19,12,0,19,2,0,1,1,5.0967793
137,1,19,13,1,31,1,0,0,4,6.4363299
137,1,19,14,0,18,1,0,1,1,4.9137982
137,1,19,15,1,22,2,1,1,3,5.643216
137,1,19,16,0,9,2,0,1,1,3.192055
137,1,19,17,0,6,1,1,0,2,4.170855
137,1,19,18,1,28,1,0,0,4,4.6329679
137,1,19,19,0,10,2,0,1,1,5.2949403
137,1,19,20,1,37,2,1,1,3,4.222165
137,1,19,21,1,26,1,1,1,3,5.0547921
137,1,19,22,1,40,1,1,1,3,2.3272118
137,1,19,23,1,25,2,1,1,3,3.9055046
137,1,19,24,0,15,2,1,0,2,4.532216
137,1,19,25,0,8,1,0,1,1,6.1019483
137,1,19,26,1,38,1,1,1,3,4.5827411
137,1,19,27,1,21,2,1,1,3,3.7648862
137,1,19,28,0,7,2,1,0,2,7.1806916
137,1,19,29,1,36,1,1,1,3,2.1039336
137,1,19,30,1,27,1,0,0,4,6.8947022
137,1,19,31,1,33,2,1,1,3,4.0284622
137,1,19,32,0,3,2,1,0,2,11.52783
137,1,19,33,1,30,1,1,1,3,4.1844075
137,1,19,34,0,16,1,0,1,1,4.107586
137,1,19,35,0,20,2,0,1,1,5.9227642
137,1,19,36,0,13,2,0,1,1,8.7105867
137,1,19,37,1,35,1,1,1,3,3.7338791
137,1,19,38,1,23,1,1,1,3,6.0505547
137,1,19,39,1,34,2,1,1,3,7.8063025
137,1,19,40,0,1,2,0,1,1,5.5079288
135,1,19,1,1,27,1,1,1,3,13.511522
135,1,19,2,1,40,1,1,1,3,5.8846781
135,1,19,3,1,31,2,1,1,3,10.043521
135,1,19,4,1,25,2,0,0,4,4.6817343
135,1,19,5,1,29,1,0,0,4,6.9332422
135,1,19,6,1,38,1,1,1,3,12.130937
135,1,19,7,1,36,2,1,1,3,4.5325093
135,1,19,8,0,11,2,0,1,1,2.6538575
135,1,19,9,1,35,1,0,0,4,11.109316
135,1,19,10,0,20,1,0,1,1,2.2725623
135,1,19,11,1,21,2,0,0,4,9.6760621
135,1,19,12,0,2,2,0,1,1,1.9063862
135,1,19,13,1,24,1,1,1,3,9.5147805
135,1,19,14,0,9,1,0,1,1,3.8035501
135,1,19,15,0,10,2,0,1,1,2.4352079
135,1,19,16,0,1,2,0,1,1,3.6490418
135,1,19,17,1,32,1,1,1,3,5.3842565
135,1,19,18,1,22,1,1,1,3,3.4643432
135,1,19,19,0,4,2,0,1,1,3.3012723
135,1,19,20,0,13,2,0,1,1,5.3070912
135,1,19,21,0,19,1,0,1,1,5.040613
135,1,19,22,0,5,1,0,1,1,4.1702886
135,1,19,23,1,28,2,1,1,3,6.8041372
135,1,19,24,1,23,2,1,1,3,6.7176057
135,1,19,25,0,16,1,0,1,1,5.8915767
135,1,19,26,1,33,1,1,1,3,4.2555535
135,1,19,27,1,37,2,1,1,3,5.2522283
135,1,19,28,0,7,2,0,1,1,6.7112336
135,1,19,29,0,12,1,0,1,1,7.0123349
135,1,19,30,1,30,1,1,1,3,4.4803249
135,1,19,31,0,14,2,0,1,1,3.2693041
135,1,19,32,1,26,2,1,1,3,7.2996746
135,1,19,33,1,39,1,1,1,3,4.0120352
135,1,19,34,0,3,1,0,1,1,1.6827051
135,1,19,35,0,18,2,0,1,1,7.9494009
135,1,19,36,0,15,2,0,1,1,6.5172689
135,1,19,37,1,34,1,1,1,3,6.4546836
135,1,19,38,0,8,1,0,1,1,5.3627074
135,1,19,39,0,17,2,0,1,1,3.6552066
135,1,19,40,0,6,2,0,1,1,5.5006388
134,1,19,1,0,18,1,0,1,1,9.4717697
134,1,19,2,1,21,1,0,0,4,4.3892538
134,1,19,3,1,34,2,0,0,4,2.5268527
134,1,19,4,0,8,2,0,1,1,2.8658635
134,1,19,5,1,22,1,1,1,3,3.5719936
134,1,19,6,0,20,1,0,1,1,2.4917913
134,1,19,7,0,16,2,0,1,1,2.3382904
134,1,19,8,0,2,2,0,1,1,2.8226168
134,1,19,9,0,12,1,0,1,1,1.9620284
134,1,19,10,0,15,1,1,0,2,2.3399946
134,1,19,11,1,26,2,1,1,3,2.3003443
134,1,19,12,1,39,2,1,1,3,2.9793335
134,1,19,13.4,1,35,1,1,1,3,3.4356141
134,1,19,14,1,36,1,1,1,3,2.9592417
134,1,19,15,0,10,2,0,1,1,2.5528592
134,1,19,16,0,11,2,0,1,1,3.1413186
134,1,19,17,1,28,1,0,0,4,2.6312622
134,1,19,18,1,24,1,1,1,3,2.0450725
134,1,19,19,0,13.4,2,0,1,1,2.7097018
134,1,19,20,0,9,2,1,0,2,3.3790829
134,1,19,21,1,31,1,0,0,4,4.5667089
134,1,19,22,0,14,1,1,0,2,2.8206672
134,1,19,23.4,1,38,2,1,1,3,2.4638097
134,1,19,24,0,7,2,0,1,1,2.0522927
134,1,19,25,1,40,1,1,1,3,1.667026
134,1,19,26,1,27,1,1,1,3,1.8588235
134,1,19,27,0,6,2,0,1,1,4.3929443
134,1,19,28,1,32,2,1,1,3,3.4796309
134,1,19,29,0,3,1,0,1,1,2.9885981
134,1,19,30,0,4,1,0,1,1,2.6628954
134,1,19,31,1,25,2,1,1,3,3.239532
134,1,19,32,0,19,2,0,1,1,2.0555432
134,1,19,33.4,1,23.4,1,0,0,4,5.3553909
134,1,19,34,1,33.4,1,1,1,3,4.4347862
134,1,19,35,0,1,2,0,1,1,1.8942523
134,1,19,36,0,5,2,0,1,1,3.561596
134,1,19,37,1,30,1,1,1,3,3.146031
134,1,19,38,1,29,1,0,0,4,5.254711
134,1,19,39,0,17,2,0,1,1,2.4909679
134,1,19,40,1,37,2,1,1,3,2.1342568
133,2,18,1,0,13,1,0,1,1,11.269104
133,2,18,2,1,21,1,1,1,3,3.1165198
133,2,18,3,0,7,2,0,1,1,4.2097908
133,2,18,4,1,32,2,0,0,4,1.5644046
133,2,18,5,0,18,1,0,1,1,2.1449954
133,2,18,6,0,10,1,0,1,1,2.5811842
133,2,18,7,0,3,2,0,1,1,5.121113
133,2,18,8,0,6,2,1,0,2,7.4209198
133,2,18,9,0,15,1,0,1,1,5.7405286
133,2,18,10,0,2,1,0,1,1,1.84001
133,2,18,11,1,30,2,1,1,3,3.9189968
133,2,18,12,1,24,2,1,1,3,2.6403131
133,2,18,13,0,16,1,0,1,1,2.1607351
133,2,18,14,1,28,1,1,1,3,2.6260734
133,2,18,15,0,17,2,0,1,1,2.5849389
133,2,18,16,0,9,2,0,1,1,1.8506988
133,2,18,17,1,29,1,1,1,3,4.2570323
133,2,18,18,1,36,1,1,1,3,4.4391801
133,2,18,19,0,20,2,0,1,1,4.0880558
133,2,18,20,0,4,2,0,1,1,2.4551304
133,2,18,21,0,8,1,0,1,1,1.657427
133,2,18,22,0,19,1,0,1,1,3.6272758
133,2,18,23,1,23,2,1,1,3,5.2638537
133,2,18,24,1,37,2,1,1,3,7.819001
133,2,18,25,0,12,1,1,0,2,15.280911
133,2,18,26,0,14,1,0,1,1,2.6979843
133,2,18,27,1,35,2,1,1,3,5.8386552
133,2,18,28,1,34,2,1,1,3,2.2070454
133,2,18,29,1,31,1,1,1,3,3.1368048
133,2,18,30,0,5,1,0,1,1,2.4056152
133,2,18,31,1,39,2,1,1,3,5.1789767
133,2,18,32,1,27,2,1,1,3,2.1194571
133,2,18,33,1,26,1,1,1,3,7.764697
133,2,18,34,0,1,1,0,1,1,2.3993859
133,2,18,35,1,22,2,1,1,3,2.2046342
133,2,18,36,1,25,2,1,1,3,2.2488178
133,2,18,37,0,11,1,0,1,1,3.1920017
133,2,18,38,1,33,1,1,1,3,6.0003886
133,2,18,39,1,38,2,1,1,3,2.2783357
133,2,18,40,1,40,2,1,1,3,3.1556574
132,1,20,1,1,31,1,1,1,3,5.1711959
132,1,20,2,1,24,1,1,1,3,3.3404597
132,1,20,3,0,9,2,0,1,1,2.5924976
132,1,20,4,0,6,2,0,1,1,4.2281054
132,1,20,5,0,20,1,0,1,1,2.1535135
132,1,20,6,0,17,1,0,1,1,1.5681254
132,1,20,7,0,7,2,0,1,1,2.6259846
132,1,20,8,1,40,2,1,1,3,3.6466768
132,1,20,9,0,10,1,0,1,1,1.553319
132,1,20,10,1,23,1,1,1,3,4.0682613
132,1,20,11,1,34,2,1,1,3,9.0135768
132,1,20,12,1,27,2,1,1,3,7.2153174
132,1,20,13,0,11,1,0,1,1,3.4980128
132,1,20,14,1,39,1,1,1,3,2.4524505
132,1,20,15,0,18,2,0,1,1,3.0132739
132,1,20,16,0,8,2,0,1,1,3.5086615
132,1,20,17,1,36,1,1,1,3,3.1065809
132,1,20,18,1,28,1,1,1,3,4.4599496
132,1,20,19,1,25,2,1,1,3,4.027246
132,1,20,20,1,35,2,1,1,3,7.6575004
132,1,20,21,0,4,1,0,1,1,3.0094939
132,1,20,22,1,26,1,1,1,3,3.5810079
132,1,20,23,0,15,2,1,0,2,6.1723094
132,1,20,24,1,38,2,1,1,3,10.437725
132,1,20,25,1,21,1,1,1,3,4.5379488
132,1,20,26,1,37,1,1,1,3,3.083011
132,1,20,27,0,5,2,1,0,2,5.7442209
132,1,20,28,0,2,2,0,1,1,2.835531
132,1,20,29,1,33,1,1,1,3,5.3853309
132,1,20,30,0,12,1,0,1,1,9.3769154
132,1,20,31,0,1,2,0,1,1,4.5307046
132,1,20,32,1,22,2,1,1,3,3.4862559
132,1,20,33,0,14,1,0,1,1,3.9245365
132,1,20,34,1,30,1,1,1,3,6.6146983
132,1,20,35,0,13,2,0,1,1,4.766702
132,1,20,36,1,29,2,1,1,3,2.7566009
132,1,20,37,0,16,1,0,1,1,4.1219332
132,1,20,38,0,3,1,0,1,1,3.2069759
132,1,20,39,0,19,2,0,1,1,2.7384457
132,1,20,40,1,32,2,1,1,3,4.820067
131,1,18,1,1,37,1,1,1,3,12.082507
131,1,18,2,0,20,1,0,1,1,3.1751667
131,1,18,3,0,14,2,0,1,1,2.7088467
131,1,18,4,1,26,2,1,1,3,3.2110539
131,1,18,5,1,39,1,1,1,3,5.6335775
131,1,18,6,0,15,1,1,0,2,6.365474
131,1,18,7,1,32,2,1,1,3,10.555873
131,1,18,8,0,12,2,0,1,1,1.432906
131,1,18,9,0,1,1,0,1,1,1.7821293
131,1,18,10,1,40,1,1,1,3,2.3083406
131,1,18,11,0,4,2,0,1,1,2.9958039
131,1,18,12,1,35,2,1,1,3,2.7318574
131,1,18,13,1,29,1,1,1,3,3.238521
131,1,18,14,0,18,1,0,1,1,3.5920582
131,1,18,15,1,21,2,1,1,3,7.2485505
131,1,18,16,1,23,2,1,1,3,9.9902385
131,1,18,17,0,19,1,0,1,1,3.2213789
131,1,18,18,1,28,1,0,0,4,11.779358
131,1,18,19,1,36,2,1,1,3,4.3628061
131,1,18,20,1,24,2,1,1,3,4.1843901
131,1,18,21,0,2,1,0,1,1,2.6197365
131,1,18,22,0,5,1,0,1,1,3.1790056
131,1,18,23,1,33,2,0,0,4,6.3112183
131,1,18,24,0,6,2,0,1,1,3.4947702
131,1,18,25,0,8,1,0,1,1,2.1897798
131,1,18,26,0,16,1,0,1,1,5.3555609
131,1,18,27,0,10,2,0,1,1,1.5777018
131,1,18,28,1,31,2,1,1,3,2.9943461
131,1,18,29,0,17,1,0,1,1,4.0415753
131,1,18,30,0,13,1,0,1,1,7.5094824
131,1,18,31,0,11,2,0,1,1,9.4997516
131,1,18,32,1,27,2,1,1,3,4.8413538
131,1,18,33,0,9,1,0,1,1,6.1200558
131,1,18,34,1,22,1,1,1,3,2.8411898
131,1,18,35,1,34,2,1,1,3,5.2485875
131,1,18,36,0,7,2,0,1,1,4.8207796
131,1,18,37,1,30,1,1,1,3,1.9567508
131,1,18,38,1,38,1,1,1,3,1.5086851
131,1,18,39,1,25,2,1,1,3,1.7325277
131,1,18,40,0,3,2,0,1,1,2.5355006
130,1,18,1,1,25,1,0,0,4,7.9332757
130,1,18,2,0,7,1,0,1,1,7.4071188
130,1,18,3,0,10,2,0,1,1,5.3664553
130,1,18,4,0,20,2,0,1,1,6.0032268
130,1,18,5,1,26,1,1,1,3,7.1113236
130,1,18,6,0,19,1,1,0,2,11.807688
130,1,18,7,0,16,2,0,1,1,6.6459025
130,1,18,8,1,33,2,1,1,3,3.004778
130,1,18,9,0,6,1,1,0,2,8.6819262
130,1,18,10,0,14,1,1,0,2,6.869457
130,1,18,11,1,37,2,1,1,3,4.5172692
130,1,18,12,0,15,2,1,0,2,6.9655349
130,1,18,13,1,28,1,1,1,3,4.2802345
130,1,18,14,0,3,1,0,1,1,10.824142
130,1,18,15,0,18,2,1,0,2,5.4192784
130,1,18,16,0,13,2,1,0,2,7.9345994
130,1,18,17,1,27,1,1,1,3,6.9525547
130,1,18,18,0,17,1,0,1,1,12.651753
130,1,18,19,1,32,2,1,1,3,9.8047268
130,1,18,20,1,21,2,1,1,3,7.3357184
130,1,18,21,1,35,1,1,1,3,2.3883705
130,1,18,22,1,40,1,1,1,3,8.9530953
130,1,18,23,0,5,2,0,1,1,13.157266
130,1,18,24,1,29,2,1,1,3,9.2304299
130,1,18,25,0,1,1,0,1,1,11.889285
130,1,18,26,1,24,1,1,1,3,5.6543508
130,1,18,27,1,39,2,1,1,3,5.0604516
130,1,18,28,1,34,2,1,1,3,4.8101874
130,1,18,29,1,30,1,1,1,3,8.1014955
130,1,18,30,0,11,1,1,0,2,8.6101915
130,1,18,31,0,12,2,1,0,2,10.722053
130,1,18,32,1,22,2,1,1,3,8.399699
130,1,18,33,1,38,1,1,1,3,4.0089395
130,1,18,34,1,36,1,1,1,3,5.8874591
130,1,18,35,0,9,2,0,1,1,10.404656
130,1,18,36,1,23,2,1,1,3,3.151773
130,1,18,37,0,8,1,1,0,2,8.8616074
130,1,18,38,1,31,1,0,0,4,8.4782578
130,1,18,39,0,4,2,0,1,1,9.8883742
130,1,18,40,0,2,2,0,1,1,4.4067753
129,1,22,1,1,22,1,1,1,3,6.586056
129,1,22,2,1,35,1,1,1,3,5.1619097
129,1,22,3,0,10,2,0,1,1,4.1038661
129,1,22,4,0,4,2,0,1,1,2.9998586
129,1,22,5,0,2,1,0,1,1,2.7168765
129,1,22,6,1,40,1,1,1,3,2.7536953
129,1,22,7,1,30,2,1,1,3,3.2905916
129,1,22,8,0,11,2,0,1,1,3.0834404
129,1,22,9,0,7,1,1,0,2,2.2698746
129,1,22,10,1,33,1,1,1,3,2.1268786
129,1,22,11,1,24,2,0,0,4,2.6024223
129,1,22,12,0,19,2,0,1,1,2.5518437
129,1,22,13,1,34,1,1,1,3,3.0075425
129,1,22,14,1,29,1,1,1,3,3.7818493
129,1,22,15,1,26,2,0,0,4,2.9839707
129,1,22,16,0,16,2,1,0,2,1.5693165
129,1,22,17,1,39,1,1,1,3,5.3136118
129,1,22,18,0,14,1,0,1,1,4.1082118
129,1,22,19,1,32,2,1,1,3,2.5535426
129,1,22,20,1,23,2,1,1,3,2.1654027
129,1,22,21,0,18,1,0,1,1,1.3934524
129,1,22,22,1,38,1,1,1,3,3.1541489
129,1,22,23,0,15,2,1,0,2,4.6000471
129,1,22,24,1,31,2,0,0,4,5.3697082
129,1,22,25,0,12,1,0,1,1,3.174721
129,1,22,26,1,27,1,0,0,4,1.9457368
129,1,22,27,1,21,2,1,1,3,1.4889686
129,1,22,28,1,36,2,1,1,3,3.1274305
129,1,22,29,0,5,1,0,1,1,7.6154198
129,1,22,30,0,1,1,1,0,2,1.9613743
129,1,22,31,0,9,2,0,1,1,2.3922352
129,1,22,32,0,8,2,1,0,2,5.7275541
129,1,22,33,0,3,1,1,0,2,4.0926586
129,1,22,34,1,25,1,0,0,4,1.0140937
129,1,22,35,0,13,2,0,1,1,3.358324
129,1,22,36,1,28,2,1,1,3,5.3990495
129,1,22,37,1,37,1,1,1,3,2.7766972
129,1,22,38,0,20,1,0,1,1,1.7740734
129,1,22,39,0,17,2,0,1,1,1.444018
129,1,22,40,0,6,2,0,1,1,3.0626766
128,1,19,1,0,18,1,0,1,1,6.4114828
128,1,19,2,0,14,1,0,1,1,6.0549169
128,1,19,3,1,37,2,1,1,3,2.5923177
128,1,19,4,1,40,2,1,1,3,5.5180207
128,1,19,5,0,9,1,0,1,1,2.8839594
128,1,19,6,1,26,1,1,1,3,7.9711958
128,1,19,7,1,29,2,1,1,3,4.2835544
128,1,19,8,1,28,2,0,0,4,2.1475642
128,1,19,9,0,5,1,0,1,1,4.9542201
128,1,19,10,1,27,1,1,1,3,5.4112832
128,1,19,11,0,2,2,0,1,1,1.686879
128,1,19,12,0,13,2,0,1,1,7.313706
128,1,19,13,0,3,1,0,1,1,6.1054233
128,1,19,14,1,35,1,1,1,3,4.9410513
128,1,19,15,0,7,2,0,1,1,1.7599465
128,1,19,16,1,23,2,1,1,3,7.1447351
128,1,19,17,0,11,1,0,1,1,4.0835029
128,1,19,18,1,33,1,1,1,3,4.3110025
128,1,19,19,1,34,2,1,1,3,5.8523434
128,1,19,20,0,6,2,1,0,2,8.8140256
128,1,19,21,0,10,1,0,1,1,8.7611881
128,1,19,22,0,16,1,0,1,1,13.559409
128,1,19,23,0,20,2,0,1,1,4.4643164
128,1,19,24,1,32,2,1,1,3,3.6262582
128,1,19,25,0,15,1,1,0,2,11.152075
128,1,19,26,1,25,1,1,1,3,6.4736565
128,1,19,27,1,30,2,1,1,3,2.6718674
128,1,19,28,1,36,2,1,1,3,3.3303146
128,1,19,29,0,17,1,0,1,1,4.8262018
128,1,19,30,1,39,1,1,1,3,7.4768435
128,1,19,31,1,38,2,1,1,3,3.8935365
128,1,19,32,1,22,2,1,1,3,4.815325
128,1,19,33,0,8,1,0,1,1,5.5369611
128,1,19,34,1,21,1,1,1,3,2.1881945
128,1,19,35,0,19,2,0,1,1,1.5136436
128,1,19,36,0,12,2,0,1,1,12.718904
128,1,19,37,1,31,1,1,1,3,2.0427111
128,1,19,38,0,1,1,0,1,1,3.2713345
128,1,19,39,1,24,2,1,1,3,7.3117292
128,1,19,40,0,4,2,0,1,1,15.209458
127,1,20,1,1,29,1,0,0,4,6.2419692
127,1,20,2,1,25,1,1,1,3,14.640973
127,1,20,3,1,21,2,1,1,3,19.521889
127,1,20,4,0,14,2,0,1,1,3.9508272
127,1,20,5,0,16,1,0,1,1,4.6846061
127,1,20,6,0,10,1,0,1,1,3.1451103
127,1,20,7,0,11,2,0,1,1,4.5763735
127,1,20,8,0,20,2,0,1,1,2.092466
127,1,20,9,1,26,1,1,1,3,12.192311
127,1,20,10,0,15,1,0,1,1,4.2431043
127,1,20,11,0,2,2,0,1,1,3.7449769
127,1,20,12,1,35,2,1,1,3,10.27222
127,1,20,13,0,7,1,0,1,1,4.9484601
127,1,20,14,0,1,1,0,1,1,5.992313
127,1,20,15,1,31,2,1,1,3,19.109575
127,1,20,16,1,36,2,1,1,3,5.5359184
127,1,20,17,0,3,1,0,1,1,13.091464
127,1,20,18,0,9,1,0,1,1,3.1975148
127,1,20,19,0,5,2,0,1,1,7.9741564
127,1,20,20,0,12,2,0,1,1,8.2453209
127,1,20,21,1,27,1,1,1,3,4.349907
127,1,20,22,1,40,1,1,1,3,6.2462884
127,1,20,23,1,28,2,0,0,4,13.741038
127,1,20,24,1,33,2,1,1,3,15.68421
127,1,20,25,0,8,1,0,1,1,8.9523086
127,1,20,26,1,30,1,1,1,3,9.4059449
127,1,20,27,0,6,2,0,1,1,8.359463
127,1,20,28,1,39,2,1,1,3,7.8009841
127,1,20,29,1,32,1,1,1,3,7.2876201
127,1,20,30,0,18,1,0,1,1,3.5462508
127,1,20,31,1,38,2,1,1,3,6.0397755
127,1,20,32,1,23,2,1,1,3,13.677113
127,1,20,33,0,19,1,0,1,1,6.4127102
127,1,20,34,1,24,1,1,1,3,5.761552
127,1,20,35,0,4,2,0,1,1,18.38951
127,1,20,36,1,37,2,1,1,3,3.7612516
127,1,20,37,0,13,1,0,1,1,6.6953041
127,1,20,38,1,34,1,1,1,3,4.1844743
127,1,20,39,0,17,2,0,1,1,7.2110201
127,1,20,40,1,22,2,1,1,3,2.3332233
126,1,21,1,0,3,1,1,0,2,6.5554869
126,1,21,2,1,31,1,1,1,3,3.1547216
126,1,21,3,0,8,2,0,1,1,2.5904538
126,1,21,4,1,36,2,0,0,4,2.903012
126,1,21,5,0,16,1,0,1,1,3.1632948
126,1,21,6,1,34,1,0,0,4,3.3136697
126,1,21,7,1,38,2,0,0,4,1.680978
126,1,21,8,0,6,2,1,0,2,2.0119343
126,1,21,9,0,4,1,0,1,1,2.5447081
126,1,21,10,1,40,1,1,1,3,2.9689567
126,1,21,11,0,15,2,0,1,1,3.5392136
126,1,21,12,0,19,2,0,1,1,2.2006771
126,1,21,13,0,9,1,1,0,2,2.9675942
126,1,21,14,0,20,1,0,1,1,3.0351961
126,1,21,15,1,25,2,1,1,3,2.8230759
126,1,21,16,1,29,2,1,1,3,1.9315955
126,1,21,17,1,37,1,1,1,3,5.3454136
126,1,21,18,0,12,1,1,0,2,1.372819
126,1,21,19,0,5,2,1,0,2,4.4363747
126,1,21,20,0,13,2,1,0,2,1.9634622
126,1,21,21,0,14,1,0,1,1,3.5367386
126,1,21,22,1,21,1,1,1,3,1.3212216
126,1,21,23,1,35,2,1,1,3,2.6569154
126,1,21,24,0,2,2,1,0,2,1.5929786
126,1,21,25,1,22,1,1,1,3,1.5847985
126,1,21,26,0,7,1,1,0,2,3.412768
126,1,21,27,0,10,2,1,0,2,2.8648261
126,1,21,28,0,18,2,1,0,2,1.266322
126,1,21,29,0,11,1,1,0,2,3.6619582
126,1,21,30,0,1,1,0,1,1,1.3643523
126,1,21,31,1,24,2,1,1,3,1.8492118
126,1,21,32,1,23,2,1,1,3,2.5810756
126,1,21,33,1,39,1,1,1,3,1.2292006
126,1,21,34,1,27,1,1,1,3,2.1611833
126,1,21,35,1,33,2,1,1,3,2.4900331
126,1,21,36,1,26,2,0,0,4,2.0073242
126,1,21,37,1,30,1,1,1,3,1.2090038
126,1,21,38,1,32,1,1,1,3,2.177898
126,1,21,39,1,28,2,0,0,4,1.207934
126,1,21,40,0,17,2,0,1,1,1.6169138
125,2,19,1,0,19,1,0,1,1,6.939309
125,2,19,2,1,27,1,1,1,3,2.3080278
125,2,19,3,0,13,2,0,1,1,2.5728156
125,2,19,4,0,5,2,1,0,2,1.888968
125,2,19,5,0,7,1,0,1,1,2.7902529
125,2,19,6,0,17,1,1,0,2,1.7690328
125,2,19,7,1,24,2,1,1,3,2.2183957
125,2,19,8,0,18,2,1,0,2,1.6687154
125,2,19,9,1,29,1,1,1,3,1.7118446
125,2,19,10,0,8,1,0,1,1,1.996855
125,2,19,11,1,21,2,1,1,3,2.6947463
125,2,19,12,1,35,2,0,0,4,1.6804945
125,2,19,13,0,6,1,0,1,1,1.9378929
125,2,19,14,0,20,1,0,1,1,1.6466084
125,2,19,15,1,23,2,1,1,3,1.9684112
125,2,19,16,1,34,2,1,1,3,1.8242998
125,2,19,17,0,1,1,0,1,1,1.2741769
125,2,19,18,1,33,1,1,1,3,2.341214
125,2,19,19,1,22,2,1,1,3,1.825558
125,2,19,20,0,12,2,0,1,1,1.207588
125,2,19,21,0,15,1,0,1,1,1.7911531
125,2,19,22,0,14,1,0,1,1,1.9360025
125,2,19,23,0,3,2,0,1,1,1.2821506
125,2,19,24,1,25,2,1,1,3,1.5231548
125,2,19,25,1,30,1,1,1,3,1.6927804
125,2,19,26,0,10,1,0,1,1,1.3727076
125,2,19,27,1,37,2,1,1,3,1.4718874
125,2,19,28,0,11,2,1,0,2,2.0146876
125,2,19,29,1,26,1,0,0,4,2.5629359
125,2,19,30,1,36,1,1,1,3,2.020828
125,2,19,31,1,40,2,1,1,3,1.4715123
125,2,19,32,0,16,2,1,0,2,1.2436234
125,2,19,33,1,31,1,1,1,3,1.349924
125,2,19,34,0,4,1,0,1,1,1.3755342
125,2,19,35,1,38,2,1,1,3,1.3691363
125,2,19,36,1,39,2,0,0,4,1.2734382
125,2,19,37,0,2,1,0,1,1,1.6304582
125,2,19,38,0,9,1,1,0,2,3.076405
125,2,19,39,1,28,2,0,0,4,2.0223185
125,2,19,40,1,32,2,0,0,4,1.4514547
124,1,18,1,0,19,1,0,1,1,5.2434834
124,1,18,2,1,24,1,1,1,3,3.6040648
124,1,18,3,0,4,2,0,1,1,2.3704889
124,1,18,4,1,29,2,1,1,3,3.527109
124,1,18,5,1,27,1,1,1,3,5.6784018
124,1,18,6,0,2,1,0,1,1,2.3883317
124,1,18,7,0,1,2,0,1,1,2.6239725
124,1,18,8,1,34,2,1,1,3,9.5959201
124,1,18,9,1,28,1,1,1,3,6.9481241
124,1,18,10,1,40,1,1,1,3,2.3669948
124,1,18,11,0,13,2,0,1,1,3.5119588
124,1,18,12,1,39,2,0,0,4,2.7734384
124,1,18,13,0,10,1,0,1,1,6.2756829
124,1,18,14,1,30,1,0,0,4,7.5236421
124,1,18,15,1,38,2,1,1,3,2.7684104
124,1,18,16,0,9,2,0,1,1,2.0536538
124,1,18,17,1,33,1,0,0,4,7.3734946
124,1,18,18,1,36,1,1,1,3,2.5853514
124,1,18,19,1,25,2,1,1,3,2.1644499
124,1,18,20,0,12,2,0,1,1,2.5350693
124,1,18,21,0,11,1,0,1,1,3.3094076
124,1,18,22,1,21,1,1,1,3,5.501722
124,1,18,23,1,37,2,1,1,3,2.0640648
124,1,18,24,0,5,2,0,1,1,3.9216418
124,1,18,25,1,22,1,1,1,3,7.0171002
124,1,18,26,0,14,1,0,1,1,2.9057427
124,1,18,27,1,23,2,0,0,4,4.3128731
124,1,18,28,0,20,2,0,1,1,1.9903386
124,1,18,29,0,17,1,0,1,1,2.0567227
124,1,18,30,0,6,1,0,1,1,3.6275364
124,1,18,31,0,3,2,0,1,1,3.5919641
124,1,18,32,0,15,2,0,1,1,5.0883831
124,1,18,33,1,32,1,1,1,3,3.1794933
124,1,18,34,1,31,1,0,0,4,4.414992
124,1,18,35,0,7,2,0,1,1,1.9349161
124,1,18,36,1,26,2,1,1,3,4.3716836
124,1,18,37,0,18,1,0,1,1,1.9042081
124,1,18,38,1,35,1,1,1,3,1.6587934
124,1,18,39,0,8,2,1,0,2,2.9836932
124,1,18,40,0,16,2,1,0,2,6.4617843
123,1,18,1,1,28,1,1,1,3,5.2626964
123,1,18,2,0,3,1,0,1,1,2.8073005
123,1,18,3,1,34,2,1,1,3,2.789085
123,1,18,4,1,32,2,1,1,3,3.5488461
123,1,18,5,0,4,1,0,1,1,5.2811199
123,1,18,6,0,6,1,0,1,1,2.0625958
123,1,18,7,1,29,2,1,1,3,2.4676081
123,1,18,8,1,21,2,1,1,3,2.6809209
123,1,18,9,0,13,1,0,1,1,4.2814539
123,1,18,10,1,40,1,1,1,3,2.580455
123,1,18,11,0,16,2,1,0,2,5.1943561
123,1,18,12,0,10,2,0,1,1,5.8673078
123,1,18,13,0,20,1,1,0,2,3.4337495
123,1,18,14,0,12,1,0,1,1,3.1933271
123,1,18,15,1,25,2,1,1,3,6.3208902
123,1,18,16,1,38,2,0,0,4,2.6736259
123,1,18,17,0,1,1,0,1,1,2.2903056
123,1,18,18,0,9,1,1,0,2,7.945575
123,1,18,19,1,37,2,0,0,4,2.0138642
123,1,18,20,1,26,2,0,0,4,1.895581
123,1,18,21,0,5,1,0,1,1,7.414407
123,1,18,22,1,23,1,1,1,3,5.7061834
123,1,18,23,1,30,2,1,1,3,2.3237982
123,1,18,24,0,18,2,0,1,1,6.369606
123,1,18,25,1,36,1,1,1,3,2.1822314
123,1,18,26,1,22,1,1,1,3,3.3270173
123,1,18,27,0,15,2,0,1,1,4.921553
123,1,18,28,0,2,2,1,0,2,6.9964625
123,1,18,29,0,11,1,0,1,1,7.3702583
123,1,18,30,0,17,1,1,0,2,2.3984204
123,1,18,31,1,31,2,1,1,3,3.3274545
123,1,18,32,0,7,2,0,1,1,5.7983959
123,1,18,33,1,33,1,1,1,3,4.1902209
123,1,18,34,1,24,1,1,1,3,3.324854
123,1,18,35,1,39,2,1,1,3,3.6353786
123,1,18,36,1,27,2,1,1,3,5.5506011
123,1,18,37,0,19,1,1,0,2,5.6278947
123,1,18,38,1,35,1,0,0,4,6.1249706
123,1,18,39,0,8,2,0,1,1,11.448094
123,1,18,40,0,14,2,0,1,1,7.4660344
122,2,18,1,1,32,1,0,0,4,25.2031
122,2,18,2,0,20,1,0,1,1,2.6666229
122,2,18,3,0,6,2,0,1,1,17.740695
122,2,18,4,1,34,2,1,1,3,13.372464
122,2,18,5,0,8,1,0,1,1,17.209019
122,2,18,6,1,38,1,1,1,3,12.47804
122,2,18,7,1,35,2,1,1,3,11.836261
122,2,18,8,0,9,2,0,1,1,5.5052937
122,2,18,9,1,25,1,1,1,3,9.2207142
122,2,18,10,1,23,1,1,1,3,14.716459
122,2,18,11,0,19,2,0,1,1,9.0583754
122,2,18,12,0,14,2,0,1,1,13.804501
122,2,18,13,1,27,1,1,1,3,11.652827
122,2,18,14,0,3,1,0,1,1,27.921951
122,2,18,15,1,22,2,1,1,3,16.839677
122,2,18,16,0,10,2,0,1,1,8.6416644
122,2,18,17,0,18,1,0,1,1,12.400967
122,2,18,18,0,16,1,0,1,1,13.250254
122,2,18,19,0,13,2,0,1,1,5.2062728
122,2,18,20,0,11,2,0,1,1,19.123348
122,2,18,21,0,1,1,0,1,1,6.1812997
122,2,18,22,1,36,1,1,1,3,15.047259
122,2,18,23,0,7,2,0,1,1,4.6030087
122,2,18,24,1,40,2,1,1,3,6.6420466
122,2,18,25,0,15,1,0,1,1,28.437355
122,2,18,26,1,29,1,1,1,3,13.155354
122,2,18,27,1,26,2,1,1,3,14.136224
122,2,18,28,0,12,2,0,1,1,6.4212605
122,2,18,29,0,4,1,0,1,1,14.645326
122,2,18,30,1,31,1,1,1,3,4.7918234
122,2,18,31,1,37,2,1,1,3,10.882594
122,2,18,32,1,39,2,1,1,3,11.403029
122,2,18,33,1,28,1,0,0,4,22.303734
122,2,18,34,0,17,1,0,1,1,3.6143341
122,2,18,35,1,30,2,1,1,3,18.984457
122,2,18,36,1,24,2,1,1,3,15.398112
122,2,18,37,1,21,1,1,1,3,8.2232647
122,2,18,38,1,33,1,1,1,3,7.8112005
122,2,18,39,0,2,2,0,1,1,3.7719983
122,2,18,40,0,5,2,0,1,1,9.2836327
121,2,21,1,0,8,1,1,0,2,3.6760798
121,2,21,2,1,25,1,0,0,4,1.7505697
121,2,21,3,0,6,2,1,0,2,1.5173563
121,2,21,4,1,38,2,1,1,3,3.2755214
121,2,21,5,0,5,1,0,1,1,2.3529127
121,2,21,6,1,28,1,1,1,3,2.6362721
121,2,21,7,0,17,2,0,1,1,4.1824598
121,2,21,8,0,4,2,0,1,1,5.0191143
121,2,21,9,1,23,1,1,1,3,2.629095
121,2,21,10,1,40,1,1,1,3,6.4569048
121,2,21,11,0,1,2,0,1,1,5.1352515
121,2,21,12,0,15,2,0,1,1,11.337491
121,2,21,13,1,21,1,0,0,4,4.0608924
121,2,21,14,1,30,1,1,1,3,5.8034774
121,2,21,15,0,20,2,1,0,2,9.0654658
121,2,21,16,0,10,2,0,1,1,7.7791483
121,2,21,17,0,12,1,0,1,1,4.4545807
121,2,21,18,1,37,1,1,1,3,8.7794251
121,2,21,19,1,33,2,1,1,3,7.0042723
121,2,21,20,0,14,2,0,1,1,5.8146378
121,2,21,21,1,39,1,0,0,4,6.7425773
121,2,21,22,1,32,1,1,1,3,9.9343741
121,2,21,23,1,35,2,0,0,4,4.1730693
121,2,21,24,0,18,2,1,0,2,6.3155748
121,2,21,25,1,31,1,1,1,3,6.4101287
121,2,21,26,1,26,1,0,0,4,6.6990767
121,2,21,27,1,29,2,1,1,3,6.901641
121,2,21,28,1,34,2,0,0,4,14.064675
121,2,21,29,1,22,1,0,0,4,5.3575299
121,2,21,30,1,36,1,1,1,3,6.099767
121,2,21,31,0,3,2,0,1,1,9.2063285
121,2,21,32,0,13,2,1,0,2,5.3548832
121,2,21,33,0,2,1,0,1,1,7.0827017
121,2,21,34,1,24,1,0,0,4,13.067147
121,2,21,35,0,19,2,0,1,1,7.9214761
121,2,21,36,0,11,2,0,1,1,10.615867
121,2,21,37,1,27,1,1,1,3,3.2441442
121,2,21,38,0,7,1,0,1,1,8.426652
121,2,21,39,0,16,2,1,0,2,4.3956728
121,2,21,40,0,9,2,0,1,1,5.9907442
120,1,17,1,1,40,1,0,0,4,15.283063
120,1,17,2,1,36,1,0,0,4,6.271301
120,1,17,3,0,9,2,0,1,1,4.9753165
120,1,17,4,0,19,2,0,1,1,21.721882
120,1,17,5,1,30,1,1,1,3,17.553701
120,1,17,6,1,24,1,1,1,3,4.5212866
120,1,17,7,0,8,2,0,1,1,25.588003
120,1,17,8,1,27,2,1,1,3,7.3479052
120,1,17,9,0,16,1,0,1,1,4.104631
120,1,17,10,1,34,1,1,1,3,11.812954
120,1,17,11,1,35,2,1,1,3,14.144784
120,1,17,12,0,17,2,0,1,1,12.531461
120,1,17,13,0,5,1,0,1,1,16.344032
120,1,17,14,0,18,1,0,1,1,18.810455
120,1,17,15,1,32,2,1,1,3,6.4162018
120,1,17,16,1,26,2,1,1,3,15.225847
120,1,17,17,1,29,1,0,0,4,13.551609
120,1,17,18,0,1,1,0,1,1,8.560426
120,1,17,19,1,33,2,0,0,4,31.447594
120,1,17,20,1,38,2,1,1,3,4.0380537
120,1,17,21,0,13,1,0,1,1,4.2348781
120,1,17,22,1,25,1,1,1,3,4.3084604
120,1,17,23,1,37,2,1,1,3,10.598759
120,1,17,24,0,2,2,0,1,1,2.6444557
120,1,17,25,1,21,1,1,1,3,4.7577437
120,1,17,26,0,7,1,0,1,1,9.038016
120,1,17,27,1,31,2,0,0,4,8.2020139
120,1,17,28,0,14,2,0,1,1,2.8739088
120,1,17,29,1,28,1,0,0,4,8.1971492
120,1,17,30,0,15,1,0,1,1,3.3389223
120,1,17,31,0,6,2,0,1,1,7.9241052
120,1,17,32,0,4,2,0,1,1,25.185061
120,1,17,33,0,20,1,0,1,1,8.9286667
120,1,17,34,1,39,1,1,1,3,10.514221
120,1,17,35,0,3,2,0,1,1,3.0237491
120,1,17,36,1,22,2,1,1,3,12.749348
120,1,17,37,0,10,1,0,1,1,25.934312
120,1,17,38,0,12,1,0,1,1,12.162212
120,1,17,39,1,23,2,0,0,4,30.691475
120,1,17,40,0,11,2,0,1,1,8.2785388
119,2,19,1,1,36,1,0,0,4,5.4615441
119,2,19,2,0,19,1,0,1,1,4.0336724
119,2,19,3,0,16,2,0,1,1,3.2467342
119,2,19,4,0,13,2,0,1,1,2.932148
119,2,19,5,1,40,1,1,1,3,3.8090812
119,2,19,6,0,4,1,0,1,1,3.0759893
119,2,19,7,0,17,2,0,1,1,3.7560364
119,2,19,8,0,3,2,1,0,2,4.9539941
119,2,19,9,0,7,1,0,1,1,2.1074247
119,2,19,10,1,24,1,1,1,3,3.0885139
119,2,19,11,1,22,2,1,1,3,3.9719941
119,2,19,12,1,26,2,1,1,3,3.2559992
119,2,19,13,0,8,1,0,1,1,1.9286078
119,2,19,14,1,32,1,0,0,4,2.9541855
119,2,19,15,0,15,2,1,0,2,2.8366284
119,2,19,16,0,12,2,0,1,1,2.5180376
119,2,19,17,0,9,1,1,0,2,1.8110866
119,2,19,18,1,27,1,1,1,3,3.110539
119,2,19,19,1,38,2,1,1,3,3.2595934
119,2,19,20,1,21,2,0,0,4,2.2464559
119,2,19,21,1,30,1,0,0,4,3.8198255
119,2,19,22,1,33,1,1,1,3,2.92665
119,2,19,23,1,35,2,1,1,3,3.0268486
119,2,19,24,1,31,2,0,0,4,2.2109696
119,2,19,25,0,14,1,0,1,1,2.7936147
119,2,19,26,1,25,1,0,0,4,3.5508532
119,2,19,27,1,39,2,0,0,4,4.2557953
119,2,19,28,0,2,2,0,1,1,1.8405361
119,2,19,29,0,5,1,0,1,1,2.5822569
119,2,19,30,1,29,1,0,0,4,2.4839438
119,2,19,31,0,1,2,1,0,2,2.762984
119,2,19,32,1,37,2,1,1,3,2.1031366
119,2,19,33,1,34,1,0,0,4,2.9576521
119,2,19,34,0,11,1,1,0,2,2.6529985
119,2,19,35,0,10,2,0,1,1,3.5814018
119,2,19,36,0,18,2,1,0,2,2.2366627
119,2,19,37,0,6,1,0,1,1,3.4295255
119,2,19,38,0,20,1,0,1,1,4.0635444
119,2,19,39,1,28,2,0,0,4,4.4111524
119,2,19,40,1,23,2,1,1,3,2.9782721
118,1,18,1,1,24,1,1,1,3,13.586985
118,1,18,2,1,38,1,0,0,4,12.734623
118,1,18,3,1,37,2,0,0,4,5.6054051
118,1,18,4,0,7,2,0,1,1,5.0221493
118,1,18,5,0,20,1,0,1,1,4.0061278
118,1,18,6,0,6,1,0,1,1,3.2407418
118,1,18,7,0,15,2,0,1,1,4.2771117
118,1,18,8,0,13,2,0,1,1,4.5678521
118,1,18,9,0,11,1,0,1,1,3.0111497
118,1,18,10,0,16,1,0,1,1,3.7671325
118,1,18,11,1,36,2,1,1,3,3.6955463
118,1,18,12,1,40,2,1,1,3,5.2279964
118,1,18,13,0,8,1,0,1,1,3.8351008
118,1,18,14,1,39,1,1,1,3,3.1967694
118,1,18,15,0,17,2,0,1,1,2.1944781
118,1,18,16,0,4,2,0,1,1,3.1458614
118,1,18,17,1,21,1,1,1,3,2.8527944
118,1,18,18,1,34,1,0,0,4,8.0545163
118,1,18,19,1,31,2,1,1,3,6.2334987
118,1,18,20,1,25,2,1,1,3,7.5173373
118,1,18,21,1,26,1,1,1,3,3.6878561
118,1,18,22,1,22,1,1,1,3,8.7670288
118,1,18,23,0,5,2,0,1,1,4.5443985
118,1,18,24,0,10,2,0,1,1,3.0170945
118,1,18,25,0,2,1,0,1,1,2.3039797
118,1,18,26,1,23,1,1,1,3,5.8180356
118,1,18,27,0,3,2,0,1,1,2.2740211
118,1,18,28,1,29,2,1,1,3,6.6394291
118,1,18,29,0,9,1,0,1,1,5.7951342
118,1,18,30,0,12,1,0,1,1,7.4813154
118,1,18,31,0,1,2,0,1,1,2.5136655
118,1,18,32,1,32,2,1,1,3,6.4645791
118,1,18,33,0,18,1,0,1,1,7.509689
118,1,18,34,1,27,1,1,1,3,3.9695018
118,1,18,35,0,19,2,0,1,1,2.3197244
118,1,18,36,1,28,2,1,1,3,8.4726427
118,1,18,37,0,14,1,0,1,1,3.3909171
118,1,18,38,1,30,1,1,1,3,4.7753259
118,1,18,39,1,33,2,1,1,3,2.6518141
118,1,18,40,1,35,2,1,1,3,3.3239735
116,1,20,1,1,30,1,0,0,4,3.9950105
116,1,20,2,1,31,1,1,1,3,3.9994129
116,1,20,3,0,12,2,0,1,1,2.1891208
116,1,20,4,0,3,2,0,1,1,5.61282
116,1,20,5,1,34,1,1,1,3,4.2411402
116,1,20,6,1,28,1,0,0,4,10.093324
116,1,20,7,0,11,2,0,1,1,4.5349184
116,1,20,8,1,26,2,1,1,3,7.7929289
116,1,20,9,1,25,1,0,0,4,3.9761539
116,1,20,10,1,33,1,0,0,4,3.9481946
116,1,20,11,0,14,2,0,1,1,5.7022037
116,1,20,12,0,15,2,0,1,1,12.087778
116,1,20,13,0,16,1,0,1,1,3.4920434
116,1,20,14,0,5,1,0,1,1,7.9048234
116,1,20,15,1,32,2,0,0,4,3.2696772
116,1,20,16,0,13,2,0,1,1,4.5629032
116,1,20,17,0,18,1,0,1,1,2.1780208
116,1,20,18,1,35,1,1,1,3,5.8216873
116,1,20,19,1,21,2,1,1,3,7.2841881
116,1,20,20,0,6,2,1,0,2,5.327915
116,1,20,21,0,2,1,0,1,1,3.5765709
116,1,20,22,0,10,1,0,1,1,3.8312901
116,1,20,23,0,19,2,0,1,1,4.6767113
116,1,20,24,1,27,2,0,0,4,3.3665763
116,1,20,25,0,4,1,0,1,1,6.0535093
116,1,20,26,0,9,1,0,1,1,6.5988006
116,1,20,27,0,7,2,0,1,1,7.8641448
116,1,20,28,1,24,2,1,1,3,2.9590224
116,1,20,29,1,39,1,1,1,3,2.5351578
116,1,20,30,1,38,1,0,0,4,13.831866
116,1,20,31,1,37,2,1,1,3,11.722283
116,1,20,32,0,20,2,0,1,1,5.8878287
116,1,20,33,0,8,1,0,1,1,6.1665695
116,1,20,34,0,17,1,0,1,1,5.0329732
116,1,20,35,1,40,2,1,1,3,5.6652555
116,1,20,36,1,36,2,1,1,3,3.3283142
116,1,20,37,1,23,1,1,1,3,7.0062685
116,1,20,38,0,1,1,0,1,1,4.3959038
116,1,20,39,1,22,2,1,1,3,7.6125735
116,1,20,40,1,29,2,0,0,4,3.6881657
115,2,18,1,0,7,1,1,0,2,16.558298
115,2,18,2,0,19,1,1,0,2,2.4925878
115,2,18,3,1,28,2,1,1,3,11.46947
115,2,18,4,0,1,2,1,0,2,9.3602701
115,2,18,5,0,11,1,0,1,1,15.778206
115,2,18,6,0,16,1,0,1,1,8.0131015
115,2,18,7,1,23,2,1,1,3,14.989368
115,2,18,8,0,18,2,1,0,2,13.542864
115,2,18,9,0,6,1,1,0,2,13.467158
115,2,18,10,0,4,1,1,0,2,27.319279
115,2,18,11,1,40,2,1,1,3,11.113897
115,2,18,12,0,14,2,0,1,1,22.75951
115,2,18,13,1,34,1,1,1,3,14.600898
115,2,18,14,1,33,1,1,1,3,19.433489
115,2,18,15,0,20,2,0,1,1,27.027126
115,2,18,16,1,32,2,0,0,4,21.294393
115,2,18,17,1,38,1,1,1,3,15.480749
115,2,18,18,1,31,1,1,1,3,15.390862
115,2,18,19,0,12,2,0,1,1,32.752351
115,2,18,20,1,39,2,1,1,3,19.90805
115,2,18,21,1,22,1,1,1,3,7.7400678
115,2,18,22,0,2,1,0,1,1,7.067212
115,2,18,23,1,37,2,1,1,3,14.070309
115,2,18,24,1,30,2,1,1,3,11.911458
115,2,18,25,1,29,1,1,1,3,10.189045
115,2,18,26,0,5,1,0,1,1,16.652042
115,2,18,27,0,17,2,0,1,1,8.7751605
115,2,18,28,0,8,2,0,1,1,12.797963
115,2,18,29,0,15,1,0,1,1,15.096421
115,2,18,30,1,25,1,1,1,3,11.261569
115,2,18,31,0,3,2,0,1,1,9.7922346
115,2,18,32,0,13,2,0,1,1,22.687573
115,2,18,33,1,27,1,1,1,3,14.013863
115,2,18,34,0,9,1,0,1,1,12.379521
115,2,18,35,1,21,2,1,1,3,7.2379776
115,2,18,36,1,36,2,1,1,3,13.888429
115,2,18,37,1,26,1,1,1,3,14.241582
115,2,18,38,1,24,1,1,1,3,13.771305
115,2,18,39,0,10,2,0,1,1,11.436806
115,2,18,40,1,35,2,1,1,3,14.466406
113,1,19,1,1,31,1,1,1,3,5.7931362
113,1,19,2,1,29,1,0,0,4,6.0144827
113,1,19,3,1,24,2,1,1,3,5.1511411
113,1,19,4,1,36,2,1,1,3,5.0671213
113,1,19,5,0,1,1,0,1,1,2.1032885
113,1,19,6,0,18,1,0,1,1,4.6805132
113,1,19,7,1,30,2,1,1,3,7.5521004
113,1,19,8,0,19,2,0,1,1,1.9755665
113,1,19,9,0,9,1,0,1,1,1.9363283
113,1,19,10,0,16,1,0,1,1,4.817885
113,1,19,11,0,7,2,0,1,1,8.2575757
113,1,19,12,1,27,2,1,1,3,5.0233231
113,1,19,13,1,40,1,1,1,3,2.8847909
113,1,19,14,0,2,1,0,1,1,4.0857441
113,1,19,15,1,38,2,1,1,3,5.4204629
113,1,19,16,0,5,2,0,1,1,6.0421356
113,1,19,17,1,37,1,1,1,3,3.6588985
113,1,19,18,1,23,1,1,1,3,6.917702
113,1,19,19,1,34,2,1,1,3,3.9391189
113,1,19,20,1,26,2,1,1,3,8.9282474
113,1,19,21,1,25,1,1,1,3,3.7265484
113,1,19,22,0,12,1,0,1,1,2.9398718
113,1,19,23,0,8,2,0,1,1,7.1265144
113,1,19,24,1,39,2,1,1,3,4.5902225
113,1,19,25,0,14,1,0,1,1,8.0849556
113,1,19,26,0,20,1,0,1,1,1.8269057
113,1,19,27,0,15,2,0,1,1,1.9173332
113,1,19,28,1,32,2,1,1,3,3.6935763
113,1,19,29,0,6,1,0,1,1,3.7472393
113,1,19,30,1,28,1,1,1,3,5.022297
113,1,19,31,1,35,2,1,1,3,6.8844704
113,1,19,32,0,10,2,0,1,1,5.111374
113,1,19,33,0,13,1,0,1,1,6.605427
113,1,19,34,0,11,1,0,1,1,2.045697
113,1,19,35,0,3,2,0,1,1,7.073052
113,1,19,36,1,22,2,1,1,3,2.5692633
113,1,19,37,1,21,1,1,1,3,3.6157675
113,1,19,38,1,33,1,1,1,3,3.8011745
113,1,19,39,0,17,2,0,1,1,4.5071869
113,1,19,40,0,4,2,0,1,1,6.5260007
112,1,18,1,1,24,1,1,1,3,7.0277922
112,1,18,2,0,3,1,1,0,2,4.3020467
112,1,18,3,1,30,2,0,0,4,6.1403006
112,1,18,4,0,18,2,1,0,2,8.8605904
112,1,18,5,1,26,1,0,0,4,4.308519
112,1,18,6,0,4,1,0,1,1,7.7287107
112,1,18,7,1,29,2,1,1,3,3.4624126
112,1,18,8,1,36,2,1,1,3,2.7304692
112,1,18,9,0,2,1,0,1,1,10.19692
112,1,18,10,0,6,1,1,0,2,4.09736
112,1,18,11,1,31,2,1,1,3,3.6598918
112,1,18,12,1,23,2,0,0,4,4.8190377
112,1,18,13,0,14,1,0,1,1,3.3541434
112,1,18,14,0,11,1,0,1,1,4.1055605
112,1,18,15,1,38,2,1,1,3,2.3277183
112,1,18,16,1,33,2,1,1,3,2.6628616
112,1,18,17,1,34,1,1,1,3,7.8656346
112,1,18,18,0,20,1,0,1,1,5.1006654
112,1,18,19,1,37,2,1,1,3,2.1292637
112,1,18,20,1,39,2,1,1,3,2.173887
112,1,18,21,0,10,1,1,0,2,2.3647011
112,1,18,22,1,25,1,0,0,4,3.3730433
112,1,18,23,0,7,2,0,1,1,4.020626
112,1,18,24,0,17,2,0,1,1,5.5197005
112,1,18,25,0,8,1,1,0,2,6.6019911
112,1,18,26,0,16,1,0,1,1,5.4155371
112,1,18,27,0,9,2,0,1,1,3.191965
112,1,18,28,0,19,2,1,0,2,3.9629731
112,1,18,29,1,28,1,0,0,4,2.9402494
112,1,18,30,0,12,1,0,1,1,7.8797414
112,1,18,31,1,21,2,1,1,3,2.840833
112,1,18,32,1,35,2,0,0,4,4.7712514
112,1,18,33,0,15,1,1,0,2,2.2404572
112,1,18,34,1,22,1,0,0,4,2.5081636
112,1,18,35,0,13,2,0,1,1,2.4200171
112,1,18,36,1,40,2,1,1,3,3.4774313
112,1,18,37,0,5,1,0,1,1,2.1897453
112,1,18,38,0,1,1,1,0,2,2.4305445
112,1,18,39,1,27,2,1,1,3,5.2486362
112,1,18,40,1,32,2,1,1,3,3.1855192
111,1,21,1,1,21,1,0,0,4,5.4635692
111,1,21,2,0,5,1,0,1,1,3.774222
111,1,21,3,1,39,2,1,1,3,4.7653396
111,1,21,4,0,3,2,0,1,1,1.7996221
111,1,21,5,1,25,1,1,1,3,2.3027538
111,1,21,6,1,22,1,1,1,3,1.7668806
111,1,21,7,1,23,2,1,1,3,2.5138788
111,1,21,8,0,19,2,0,1,1,1.7535791
111,1,21,9,0,6,1,0,1,1,5.2232525
111,1,21,10,0,17,1,0,1,1,3.6199977
111,1,21,11,1,31,2,1,1,3,2.6217626
111,1,21,12,1,33,2,1,1,3,1.6523105
111,1,21,13,1,27,1,1,1,3,1.7771777
111,1,21,14,0,14,1,1,0,2,7.6888673
111,1,21,15,0,1,2,0,1,1,4.3865211
111,1,21,16,0,7,2,0,1,1,1.9496985
111,1,21,17,1,35,1,1,1,3,1.4794229
111,1,21,18,0,10,1,0,1,1,7.6413236
111,1,21,19,0,13,2,0,1,1,3.6528546
111,1,21,20,1,26,2,1,1,3,1.3231076
111,1,21,21,1,34,1,1,1,3,1.3775674
111,1,21,22,1,28,1,1,1,3,3.8177184
111,1,21,23,0,8,2,0,1,1,5.9634125
111,1,21,24,0,18,2,0,1,1,6.1256352
111,1,21,25,0,12,1,0,1,1,3.6402929
111,1,21,26,1,40,1,1,1,3,1.1405565
111,1,21,27,1,30,2,1,1,3,2.0648466
111,1,21,28,1,32,2,1,1,3,1.409591
111,1,21,29,1,37,1,1,1,3,1.7952764
111,1,21,30,0,2,1,0,1,1,1.8108473
111,1,21,31,1,24,2,0,0,4,3.645688
111,1,21,32,1,29,2,1,1,3,2.5989173
111,1,21,33,1,38,1,1,1,3,1.2299254
111,1,21,34,0,11,1,0,1,1,5.8725224
111,1,21,35,1,36,2,1,1,3,1.2808221
111,1,21,36,0,15,2,0,1,1,3.4752585
111,1,21,37,0,16,1,0,1,1,4.2484953
111,1,21,38,0,9,1,0,1,1,2.5671007
111,1,21,39,0,20,2,0,1,1,2.1207638
111,1,21,40,0,4,2,0,1,1,3.1070269
110,1,18,1,0,11,1,0,1,1,3.1113814
110,1,18,2,0,13,1,0,1,1,1.9635941
110,1,18,3,0,19,2,1,0,2,2.190803
110,1,18,4,1,28,2,0,0,4,2.4931527
110,1,18,5,0,9,1,0,1,1,1.8474524
110,1,18,6,0,7,1,0,1,1,2.1557779
110,1,18,7,0,15,2,1,0,2,2.5300079
110,1,18,8,1,33,2,1,1,3,2.5768946
110,1,18,9,1,38,1,1,1,3,2.2054415
110,1,18,10,1,25,1,1,1,3,1.6650198
110,1,18,11,1,40,2,1,1,3,1.2918922
110,1,18,12,0,1,2,1,0,2,2.554989
110,1,18,13,0,10,1,0,1,1,2.1453324
110,1,18,14,1,34,1,1,1,3,2.2644985
110,1,18,15,0,6,2,0,1,1,3.350654
110,1,18,16,1,22,2,1,1,3,1.821631
110,1,18,17,1,31,1,1,1,3,1.7718472
110,1,18,18,0,16,1,0,1,1,4.526042
110,1,18,19,0,8,2,0,1,1,2.7725214
110,1,18,20,0,12,2,1,0,2,3.0269843
110,1,18,21,0,4,1,0,1,1,1.8606748
110,1,18,22,1,21,1,0,0,4,2.6535407
110,1,18,23,0,18,2,0,1,1,2.4676896
110,1,18,24,0,3,2,0,1,1,2.9631752
110,1,18,25,1,35,1,1,1,3,2.7527413
110,1,18,26,1,29,1,1,1,3,2.4622124
110,1,18,27,0,5,2,1,0,2,1.9098744
110,1,18,28,0,2,2,0,1,1,2.6032657
110,1,18,29,0,17,1,1,0,2,2.8430831
110,1,18,30,0,14,1,1,0,2,2.622154
110,1,18,31,1,27,2,1,1,3,2.4197288
110,1,18,32,1,37,2,1,1,3,1.5743014
110,1,18,33,1,24,1,1,1,3,2.4373836
110,1,18,34,1,26,1,0,0,4,3.79578
110,1,18,35,1,36,2,1,1,3,1.9683301
110,1,18,36,1,30,2,1,1,3,2.3793362
110,1,18,37,1,23,1,1,1,3,2.7774129
110,1,18,38,1,39,1,1,1,3,1.9792979
110,1,18,39,1,32,2,1,1,3,1.9862779
110,1,18,40,0,20,2,0,1,1,3.5572108
109,1,18,1,1,32,1,0,0,4,4.8169948
109,1,18,2,1,25,1,1,1,3,2.8508862
109,1,18,3,1,22,2,1,1,3,1.529615
109,1,18,4,1,29,2,0,0,4,3.2720141
109,1,18,5,0,11,1,0,1,1,2.6953159
109,1,18,6,0,8,1,0,1,1,1.6955487
109,1,18,7,0,5,2,0,1,1,1.8059618
109,1,18,8,0,13,2,0,1,1,1.5250649
109,1,18,9,1,30,1,1,1,3,1.9746229
109,1,18,10,0,14,1,0,1,1,1.9342694
109,1,18,11,0,12,2,0,1,1,1.7058539
109,1,18,12,1,26,2,1,1,3,2.2940611
109,1,18,13,1,37,1,1,1,3,2.4090039
109,1,18,14,0,9,1,1,0,2,1.8705967
109,1,18,15,0,10,2,0,1,1,1.9267908
109,1,18,16,0,17,2,0,1,1,1.9569906
109,1,18,17,0,19,1,0,1,1,1.742898
109,1,18,18,1,24,1,0,0,4,1.1721323
109,1,18,19,0,15,2,0,1,1,1.9047886
109,1,18,20,1,38,2,1,1,3,1.657635
109,1,18,21,1,23,1,0,0,4,1.9885893
109,1,18,22,1,31,1,0,0,4,2.24496
109,1,18,23,1,35,2,1,1,3,2.5181783
109,1,18,24,0,7,2,0,1,1,1.5561769
109,1,18,25,1,21,1,1,1,3,1.6448135
109,1,18,26,0,16,1,0,1,1,1.5705323
109,1,18,27,0,2,2,0,1,1,1.6657938
109,1,18,28,1,36,2,1,1,3,1.3101242
109,1,18,29,1,27,1,1,1,3,2.6208518
109,1,18,30,0,1,1,1,0,2,1.6548123
109,1,18,31,0,18,2,0,1,1,1.2237832
109,1,18,32,1,34,2,0,0,4,1.7173083
109,1,18,33,0,4,1,0,1,1,1.5841077
109,1,18,34,0,3,1,0,1,1,1.3257712
109,1,18,35,0,20,2,0,1,1,1.3505376
109,1,18,36,1,40,2,1,1,3,1.3565889
109,1,18,37,1,33,1,1,1,3,1.3235466
109,1,18,38,0,6,1,1,0,2,1.5788149
109,1,18,39,1,39,2,1,1,3,1.3364019
109,1,18,40,1,28,2,0,0,4,1.4324145
108,1,19,1,0,5,1,0,1,1,8.5875722
108,1,19,2,1,23,1,0,0,4,6.0145606
108,1,19,3,1,22,2,0,0,4,3.0451423
108,1,19,4,0,20,2,0,1,1,4.7316344
108,1,19,5,1,29,1,1,1,3,5.8388031
108,1,19,6,0,12,1,0,1,1,1.7023602
108,1,19,7,0,7,2,0,1,1,2.7856796
108,1,19,8,0,2,2,0,1,1,1.5860929
108,1,19,9,0,18,1,0,1,1,5.6120434
108,1,19,10,0,9,1,0,1,1,5.7487843
108,1,19,11,1,21,2,1,1,3,4.2748968
108,1,19,12,1,34,2,0,0,4,4.8605034
108,1,19,13,0,6,1,0,1,1,2.3187619
108,1,19,14,0,1,1,1,0,2,2.2713604
108,1,19,15,1,36,2,1,1,3,4.1804004
108,1,19,16,1,32,2,1,1,3,6.7554752
108,1,19,17,0,11,1,1,0,2,6.8952767
108,1,19,18,0,8,1,0,1,1,5.1627425
108,1,19,19,0,15,2,0,1,1,5.5429968
108,1,19,20,1,27,2,1,1,3,3.8902876
108,1,19,21,0,13,1,0,1,1,6.433351
108,1,19,22,0,4,1,1,0,2,5.8250119
108,1,19,23,0,14,2,0,1,1,5.7981196
108,1,19,24,1,31,2,1,1,3,8.4090642
108,1,19,25,1,37,1,1,1,3,6.1030053
108,1,19,26,1,30,1,0,0,4,4.2818574
108,1,19,27,0,16,2,0,1,1,3.3168426
108,1,19,28,0,10,2,0,1,1,4.1702839
108,1,19,29,1,39,1,1,1,3,7.7816404
108,1,19,30,0,17,1,0,1,1,3.5464158
108,1,19,31,0,3,2,0,1,1,3.2630591
108,1,19,32,1,33,2,1,1,3,5.2513416
108,1,19,33,1,38,1,1,1,3,5.6523711
108,1,19,34,1,40,1,0,0,4,6.450612
108,1,19,35,0,19,2,0,1,1,4.1267942
108,1,19,36,1,24,2,1,1,3,3.6093783
108,1,19,37,1,28,1,0,0,4,5.5383007
108,1,19,38,1,26,1,1,1,3,4.8576733
108,1,19,39,1,25,2,1,1,3,4.9533523
108,1,19,40,1,35,2,1,1,3,7.4627706
107,1,28,1,0,2,1,0,1,1,5.0218915
107,1,28,2,0,5,1,0,1,1,8.9332211
107,1,28,3,0,20,2,0,1,1,1.3803602
107,1,28,4,1,37,2,1,1,3,1.8947982
107,1,28,5,1,40,1,1,1,3,2.7367396
107,1,28,6,0,14,1,0,1,1,2.4853133
107,1,28,7,0,12,2,0,1,1,3.7429093
107,1,28,8,1,25,2,1,1,3,4.1200734
107,1,28,9,1,27,1,0,0,4,5.1225085
107,1,28,10,1,23,1,1,1,3,3.2666914
107,1,28,11,1,39,2,1,1,3,3.5060215
107,1,28,12,1,29,2,1,1,3,3.5335894
107,1,28,13,1,28,1,0,0,4,3.2733784
107,1,28,14,0,9,1,0,1,1,5.0440062
107,1,28,15,1,21,2,0,0,4,3.3042941
107,1,28,16,1,24,2,1,1,3,3.7145738
107,1,28,17,1,26,1,0,0,4,5.2316892
107,1,28,18,1,30,1,1,1,3,2.4534647
107,1,28,19,0,16,2,0,1,1,5.2954652
107,1,28,20,0,18,2,1,0,2,3.684681
107,1,28,21,1,31,1,0,0,4,3.415132
107,1,28,22,0,6,1,1,0,2,3.6858905
107,1,28,23,1,22,2,0,0,4,5.9714768
107,1,28,24,0,11,2,0,1,1,5.6115455
107,1,28,25,0,13,1,1,0,2,4.612962
107,1,28,26,0,10,1,0,1,1,3.1203921
107,1,28,27,0,3,2,0,1,1,4.1278616
107,1,28,28,1,36,2,1,1,3,4.4832012
107,1,28,29,0,1,1,0,1,1,4.1047709
107,1,28,30,0,7,1,0,1,1,3.5681469
107,1,28,31,0,4,2,0,1,1,4.3914567
107,1,28,32,0,8,2,0,1,1,2.7704441
107,1,28,33,0,19,1,0,1,1,2.6642483
107,1,28,34,0,15,1,0,1,1,1.8747294
107,1,28,35,1,33,2,0,0,4,0.9784054
107,1,28,36,1,35,2,1,1,3,1.6297176
107,1,28,37,1,34,1,1,1,3,3.4796182
107,1,28,38,1,32,1,0,0,4,1.6221928
107,1,28,39,0,17,2,0,1,1,4.5503351
107,1,28,40,1,38,2,1,1,3,2.6775846
106,1,18,1,1,27,1,0,0,4,9.3830694
106,1,18,2,0,7,1,0,1,1,4.319962
106,1,18,3,0,1,2,0,1,1,4.9225527
106,1,18,4,1,39,2,1,1,3,3.6433098
106,1,18,5,1,26,1,1,1,3,3.7233051
106,1,18,6,1,40,1,1,1,3,2.9416617
106,1,18,7,0,13,2,0,1,1,3.8754989
106,1,18,8,1,21,2,1,1,3,4.7588065
106,1,18,9,0,6,1,0,1,1,2.193622
106,1,18,10,1,24,1,0,0,4,1.8556928
106,1,18,11,1,38,2,1,1,3,4.6940125
106,1,18,12,0,18,2,1,0,2,4.3365286
106,1,18,13,1,32,1,1,1,3,2.8147526
106,1,18,14,0,17,1,0,1,1,2.4409807
106,1,18,15,0,15,2,0,1,1,3.374748
106,1,18,16,0,12,2,0,1,1,1.8251947
106,1,18,17,1,29,1,1,1,3,4.1367475
106,1,18,18,1,37,1,0,0,4,3.6055414
106,1,18,19,0,14,2,0,1,1,2.8648072
106,1,18,20,0,5,2,0,1,1,2.305528
106,1,18,21,1,33,1,0,0,4,5.8894491
106,1,18,22,0,9,1,0,1,1,4.4733593
106,1,18,23,1,31,2,1,1,3,5.3758781
106,1,18,24,0,16,2,0,1,1,3.585376
106,1,18,25,0,11,1,0,1,1,3.9554868
106,1,18,26,1,23,1,1,1,3,5.5459098
106,1,18,27,1,25,2,1,1,3,5.913701
106,1,18,28,0,2,2,0,1,1,3.1490629
106,1,18,29,0,19,1,0,1,1,2.819289
106,1,18,30,1,30,1,1,1,3,4.4116165
106,1,18,31,0,4,2,0,1,1,4.8403145
106,1,18,32,0,20,2,0,1,1,2.9116872
106,1,18,33,1,28,1,0,0,4,6.7199806
106,1,18,34,1,36,1,1,1,3,4.7964374
106,1,18,35,1,22,2,1,1,3,3.6163537
106,1,18,36,1,34,2,0,0,4,10.43682
106,1,18,37,0,3,1,0,1,1,2.2078896
106,1,18,38,1,35,1,1,1,3,5.5145311
106,1,18,39,0,10,2,0,1,1,1.938796
106,1,18,40,0,8,2,0,1,1,3.0920209
105,1,18,1,1,26,1,1,1,3,6.8199255
105,1,18,2,1,25,1,1,1,3,7.2738348
105,1,18,3,0,14,2,0,1,1,3.9025449
105,1,18,4,1,35,2,1,1,3,4.0362726
105,1,18,5,1,27,1,0,0,4,6.7984744
105,1,18,6,1,30,1,0,0,4,8.7824156
105,1,18,7,1,32,2,1,1,3,8.6621103
105,1,18,8,0,19,2,0,1,1,6.0326019
105,1,18,9,0,15,1,0,1,1,3.8660996
105,1,18,10,1,39,1,1,1,3,8.6911987
105,1,18,11,0,17,2,0,1,1,4.1746442
105,1,18,12,1,28,2,0,0,4,5.8739347
105,1,18,13,0,7,1,0,1,1,9.1942747
105,1,18,14,1,29,1,1,1,3,8.613135
105,1,18,15,1,23,2,1,1,3,6.6295913
105,1,18,16,1,22,2,1,1,3,5.956595
105,1,18,17,0,2,1,1,0,2,11.875954
105,1,18,18,1,21,1,1,1,3,7.3132715
105,1,18,19,0,12,2,1,0,2,9.55299
105,1,18,20,0,11,2,0,1,1,5.5031318
105,1,18,21,1,40,1,1,1,3,9.0008935
105,1,18,22,1,37,1,0,0,4,11.777733
105,1,18,23,0,6,2,1,0,2,8.2010047
105,1,18,24,0,5,2,0,1,1,4.7712376
105,1,18,25,1,34,1,1,1,3,9.7767233
105,1,18,26,0,13,1,0,1,1,6.1646366
105,1,18,27,1,24,2,0,0,4,15.777347
105,1,18,28,0,4,2,0,1,1,8.8204498
105,1,18,29,1,36,1,0,0,4,10.489322
105,1,18,30,0,1,1,0,1,1,6.4404334
105,1,18,31,1,38,2,1,1,3,11.396657
105,1,18,32,1,33,2,1,1,3,9.0600083
105,1,18,33,0,16,1,0,1,1,10.651568
105,1,18,34,0,20,1,0,1,1,11.104293
105,1,18,35,1,31,2,0,0,4,5.9435609
105,1,18,36,0,3,2,1,0,2,10.546327
105,1,18,37,0,18,1,0,1,1,4.9827528
105,1,18,38,0,10,1,0,1,1,8.5518358
105,1,18,39,0,9,2,0,1,1,8.0318589
105,1,18,40,0,8,2,0,1,1,10.071694
104,1,18,1,1,21,1,0,0,4,5.9441875
104,1,18,2,1,36,1,0,0,4,6.4360691
104,1,18,3,1,30,2,0,0,4,4.0822739
104,1,18,4,0,20,2,0,1,1,1.4311074
104,1,18,5,1,27,1,0,0,4,4.0130426
104,1,18,6,1,24,1,0,0,4,1.0530691
104,1,18,7,1,23,2,0,0,4,1.4788481
104,1,18,8,1,39,2,0,0,4,2.7956768
104,1,18,9,0,13,1,0,1,1,1.3347289
104,1,18,10,0,4,1,0,1,1,2.4004968
104,1,18,11,1,35,2,1,1,3,3.9897932
104,1,18,12,0,17,2,0,1,1,1.6120666
104,1,18,13,0,6,1,0,1,1,1.1774782
104,1,18,14,0,10,1,0,1,1,1.8169787
104,1,18,15,0,18,2,0,1,1,1.9373778
104,1,18,16,0,11,2,0,1,1,1.0878808
104,1,18,17,1,25,1,0,0,4,1.7481582
104,1,18,18,0,16,1,1,0,2,2.6221123
104,1,18,19,1,37,2,0,0,4,1.5282109
104,1,18,20,1,28,2,0,0,4,0.98006695
104,1,18,21,0,8,1,0,1,1,1.9205139
104,1,18,22,1,40,1,1,1,3,2.0556259
104,1,18,23,1,33,2,1,1,3,1.7080946
104,1,18,24,0,15,2,0,1,1,2.5661457
104,1,18,25,1,29,1,0,0,4,3.9152754
104,1,18,26,0,12,1,0,1,1,1.7529651
104,1,18,27,1,31,2,0,0,4,2.968609
104,1,18,28,1,22,2,1,1,3,5.0817368
104,1,18,29,1,32,1,1,1,3,3.3333315
104,1,18,30,0,1,1,0,1,1,2.0636303
104,1,18,31,1,38,2,0,0,4,4.7098559
104,1,18,32,0,2,2,0,1,1,5.4363734
104,1,18,33,0,7,1,0,1,1,2.7863497
104,1,18,34,0,5,1,0,1,1,1.5398497
104,1,18,35,0,9,2,0,1,1,2.3715787
104,1,18,36,1,26,2,0,0,4,1.3301925
104,1,18,37,0,3,1,0,1,1,2.3120507
104,1,18,38,0,14,1,0,1,1,2.0401517
104,1,18,39,0,19,2,0,1,1,4.7066217
104,1,18,40,1,34,2,0,0,4,2.3116991
103,1,18,1,0,10,1,1,0,2,12.61536
103,1,18,2,0,1,1,1,0,2,7.7816124
103,1,18,3,1,40,2,1,1,3,6.4201563
103,1,18,4,0,8,2,0,1,1,7.2178403
103,1,18,5,0,4,1,0,1,1,3.5943292
103,1,18,6,0,6,1,0,1,1,4.6735429
103,1,18,7,1,27,2,1,1,3,9.4828482
103,1,18,8,0,2,2,0,1,1,3.9722346
103,1,18,9,0,14,1,0,1,1,3.4386708
103,1,18,10,0,9,1,1,0,2,10.462743
103,1,18,11,0,19,2,0,1,1,6.6692928
103,1,18,12,0,15,2,0,1,1,3.086984
103,1,18,13,1,29,1,1,1,3,3.8088563
103,1,18,14,1,38,1,1,1,3,2.6787472
103,1,18,15,0,18,2,0,1,1,7.2902524
103,1,18,16,1,34,2,1,1,3,3.8715108
103,1,18,17,0,7,1,0,1,1,2.5010376
103,1,18,18,0,5,1,1,0,2,3.0332176
103,1,18,19,1,33,2,1,1,3,3.912053
103,1,18,20,0,12,2,0,1,1,4.8252664
103,1,18,21,1,39,1,0,0,4,7.3946564
103,1,18,22,1,35,1,1,1,3,11.852179
103,1,18,23,0,3,2,0,1,1,5.8161865
103,1,18,24,1,28,2,0,0,4,8.8516168
103,1,18,25,1,30,1,1,1,3,4.3040651
103,1,18,26,0,20,1,0,1,1,2.505142
103,1,18,27,1,31,2,1,1,3,3.9914638
103,1,18,28,1,25,2,1,1,3,2.5889536
103,1,18,29,1,26,1,1,1,3,6.3953483
103,1,18,30,1,36,1,1,1,3,3.0769411
103,1,18,31,1,22,2,1,1,3,3.7968504
103,1,18,32,1,23,2,1,1,3,12.898614
103,1,18,33,0,16,1,0,1,1,10.555674
103,1,18,34,0,11,1,0,1,1,5.6945494
103,1,18,35,0,13,2,0,1,1,6.3658081
103,1,18,36,1,21,2,1,1,3,2.5007379
103,1,18,37,1,24,1,1,1,3,8.0801753
103,1,18,38,1,32,1,1,1,3,9.7308189
103,1,18,39,0,17,2,0,1,1,3.2479905
103,1,18,40,1,37,2,1,1,3,3.632219
102,1,18,1,1,22,1,1,1,3,6.3394873
102,1,18,2,0,10,1,0,1,1,7.2765885
102,1,18,3,0,8,2,0,1,1,5.4294989
102,1,18,4,1,21,2,1,1,3,6.6604693
102,1,18,5,0,3,1,0,1,1,4.5922262
102,1,18,6,1,39,1,1,1,3,5.8071405
102,1,18,7,0,20,2,0,1,1,7.6680534
102,1,18,8,0,9,2,0,1,1,6.2300247
102,1,18,9,1,36,1,1,1,3,2.9729292
102,1,18,10,1,38,1,1,1,3,2.010338
102,1,18,11,1,37,2,1,1,3,3.8019535
102,1,18,12,0,17,2,0,1,1,2.5645754
102,1,18,13,1,27,1,1,1,3,3.6350833
102,1,18,14,0,4,1,1,0,2,6.748161
102,1,18,15,0,6,2,0,1,1,5.3816085
102,1,18,16,1,33,2,1,1,3,4.4230866
102,1,18,17,1,35,1,1,1,3,2.4797656
102,1,18,18,0,16,1,0,1,1,4.0242287
102,1,18,19,1,32,2,1,1,3,6.1302974
102,1,18,20,0,13,2,0,1,1,2.4566653
102,1,18,21,1,25,1,1,1,3,5.3193917
102,1,18,22,1,30,1,1,1,3,3.1214897
102,1,18,23,1,23,2,0,0,4,7.9449152
102,1,18,24,0,2,2,0,1,1,2.3618151
102,1,18,25,1,26,1,1,1,3,4.8843993
102,1,18,26,1,24,1,1,1,3,2.1952792
102,1,18,27,0,1,2,1,0,2,3.9708181
102,1,18,28,0,19,2,1,0,2,2.9428301
102,1,18,29,0,7,1,0,1,1,2.8088168
102,1,18,30,1,34,1,1,1,3,7.5588517
102,1,18,31,0,14,2,0,1,1,7.1479008
102,1,18,32,1,28,2,0,0,4,3.3699944
102,1,18,33,1,29,1,1,1,3,5.2417488
102,1,18,34,1,31,1,0,0,4,4.1286179
102,1,18,35,0,15,2,0,1,1,2.8168396
102,1,18,36,0,18,2,0,1,1,5.1717388
102,1,18,37,0,11,1,0,1,1,4.0789835
102,1,18,38,1,40,1,1,1,3,1.7165178
102,1,18,39,0,5,2,1,0,2,2.5325214
102,1,18,40,0,12,2,1,0,2,3.2298797
101,1,21,1,0,10,1,0,1,1,10.133445
101,1,21,2,0,12,1,1,0,2,11.455091
101,1,21,3,0,4,2,0,1,1,12.072284
101,1,21,4,0,19,2,1,0,2,10.205717
101,1,21,5,0,13,1,0,1,1,13.977846
101,1,21,6,0,11,1,0,1,1,10.316166
101,1,21,7,0,1,2,0,1,1,13.69075
101,1,21,8,1,24,2,1,1,3,5.8884981
101,1,21,9,1,32,1,1,1,3,11.812621
101,1,21,10,0,20,1,0,1,1,30.569881
101,1,21,11,1,34,2,1,1,3,5.0684878
101,1,21,12,1,22,2,1,1,3,4.729966
101,1,21,13,0,17,1,0,1,1,7.382744
101,1,21,14,1,26,1,1,1,3,8.2253211
101,1,21,15,0,18,2,1,0,2,7.9903616
101,1,21,16,1,27,2,1,1,3,17.425982
101,1,21,17,1,36,1,1,1,3,4.2420105
101,1,21,18,0,3,1,1,0,2,11.586338
101,1,21,19,0,16,2,0,1,1,16.855955
101,1,21,20,0,15,2,0,1,1,9.4727566
101,1,21,21,1,40,1,1,1,3,9.6325184
101,1,21,22,1,38,1,1,1,3,4.9647227
101,1,21,23,1,35,2,1,1,3,4.5411591
101,1,21,24,0,14,2,0,1,1,10.793501
101,1,21,25,1,39,1,1,1,3,11.188479
101,1,21,26,0,8,1,0,1,1,17.06384
101,1,21,27,1,25,2,1,1,3,8.0414206
101,1,21,28,0,6,2,1,0,2,21.180251
101,1,21,29,1,37,1,1,1,3,6.9139716
101,1,21,30,0,9,1,0,1,1,8.7426154
101,1,21,31,1,23,2,1,1,3,20.534657
101,1,21,32,1,21,2,1,1,3,7.0129065
101,1,21,33,0,5,1,0,1,1,13.674844
101,1,21,34,1,29,1,1,1,3,9.9093787
101,1,21,35,0,7,2,0,1,1,15.820378
101,1,21,36,1,30,2,1,1,3,9.5267402
101,1,21,37,1,31,1,1,1,3,28.242773
101,1,21,38,1,28,1,1,1,3,8.1708333
101,1,21,39,1,33,2,1,1,3,4.1294324
101,1,21,40,0,2,2,0,1,1,6.0413938
